item 7: managements discussion and analysis of financial condition and results of operations management overview references in this managements discussion and analysis of financial condition and results of operations to organic sales refer to sales from continuing operations calculated in accordance with generally accepted accounting principles in the united states of america (gaap), excluding acquisition-related sales and the impact of foreign currency translation. management evaluates the companys sales performance based on organic sales growth, which primarily reflects growth from the companys existing businesses as a result of increased output, customer base and geographic expansion, new product development and/or pricing, and excludes sales contributions from acquired operations the company did not own as of the comparable prior-year reporting period. the companys organic sales disclosures also exclude the effects of foreign currency translation as foreign currency translation is subject to volatility that can obscure underlying business trends. management believes that the non-gaap financial measure of organic sales is meaningful to investors as it provides them with useful information to aid in identifying underlying growth trends in our businesses and facilitating comparisons of our sales performance with prior periods.
we believe our operating results in 2017 demonstrate snap-ons continued progress in providing repeatability and reliability to a wide range of professional customers performing critical tasks in workplaces of consequence. leveraging capabilities already demonstrated in the automotive repair arena, our coherent growth strategy focuses on developing and expanding our professional customer base, not only in automotive repair, but in adjacent markets, additional geographies and other areas, including in critical industries, where the cost and penalties for failure can be high.
we also believe our 2017 operating results provide continued evidence that snap-ons value proposition of making work easier for serious professionals in workplaces of consequence is an ongoing strength as we move forward along our runways for coherent growth:
   enhancing the franchise network, where we continued to focus on helping our franchisees extend their reach through innovative selling processes and productivity initiatives that break the traditional time and space barriers inherent in a mobile van;

   expanding in the vehicle repair garage, where we continued to make progress in connecting with customers and translating the resulting insights into innovation that solves specific challenges in the repair facility;

   further extending in critical industries, where we continued to grow our lines of products customized for specific industries, including through acquisitions (as discussed below); and

   building in emerging markets, where we continued to build manufacturing capacity, focused product lines and distribution capability.

our strategic priorities and plans for 2018 will continue to build on our snap-on value creation processes  our suite of strategic principles and processes we employ every day designed to create value, and employed in the areas of safety, quality, customer connection, innovation and rapid continuous improvement (rapid continuous improvement or rci). we expect to continue to deploy these processes in our existing operations as well as into our newly acquired businesses.
snap-ons rci initiatives employ a structured set of tools and processes across multiple businesses and geographies intended to eliminate waste and improve operations. savings from snap-ons rci initiatives reflect benefits from a wide variety of ongoing efficiency, productivity and process improvements, including savings generated from product design cost reductions, improved manufacturing line set-up and change-over practices, lower-cost sourcing initiatives and facility consolidations. unless individually significant, it is not practicable to disclose each rci activity that generated savings and/or segregate rci savings embedded in sales volume increases.
our global financial services operations continue to serve a significant strategic role in offering financing options to our franchisees, to their customers, and to customers in other parts of our business. we expect that our global financial services business, which includes both snap-on credit llc (soc) in the united states and our other international finance subsidiaries, will continue to be a meaningful contributor to our operating earnings going forward.
snap-on has significant international operations and is subject to risks inherent with foreign operations, including foreign currency translation fluctuations.
2017 annual report   27
managements discussion and analysis of financial condition and results of operations (continued)
recent acquisitions on july 28, 2017, snap-on acquired torque control specialists pty ltd (tcs) for a cash purchase price of $3.6 million (or $3.5 million, net of cash acquired). tcs, based in adelaide, australia, distributes a full range of torque products, including wrenches, multipliers and calibrators, for use in critical industries. the acquisition of tcs enhanced and expanded snap-ons capabilities in providing solutions that address torque requirements, which are increasingly essential to critical mechanical performance. for segment reporting purposes, the results of operations and assets of tcs have been included in the commercial & industrial group since the acquisition date.
on may 4, 2017, snap-on acquired norbar torque tools holdings limited, along with its u.s. and chinese joint ventures (norbar), for a cash purchase price of $71.6 million (or $69.9 million, net of cash acquired). norbar, based in banbury, u.k., designs and manufactures a full range of torque products, including wrenches, multipliers and calibrators, for use in critical industries. the acquisition of norbar enhanced and expanded snap-ons capabilities in providing solutions that address torque requirements. for segment reporting purposes, the results of operations and assets of norbar have been included in the commercial & industrial group since the acquisition date.
on january 30, 2017, snap-on acquired btc global limited (btc) for a cash purchase price of $9.2 million. btc, based in crewe, u.k., designs and implements automotive vehicle inspection and management software for original equipment manufacturer (oem) franchise repair shops. the acquisition of btc enhanced snap-ons capabilities to grow enterprise revenues and add increased productivity for repair workshops. for segment reporting purposes, the results of operations and assets of btc have been included in the repair systems & information group since the acquisition date.
on november 16, 2016, snap-on acquired ryeson corporation (d/b/a sturtevant richmont) for a cash purchase price of $13.0 million (or $12.6 million, net of cash acquired). sturtevant richmont, based in carol stream, illinois, designs, manufactures and distributes mechanical and electronic torque wrenches as well as wireless torque error proofing systems for a variety of industrial applications. the acquisition of sturtevant richmont enhanced and expanded snap-ons capabilities in providing solutions that address torque requirements. for segment reporting purposes, the results of operations and assets of sturtevant richmont have been included in the commercial & industrial group since the acquisition date.
on october 31, 2016, snap-on acquired car-o-liner holding ab (car-o-liner) for a cash purchase price of $152.0 million (or $148.1 million, net of cash acquired). car-o-liner, based in gothenburg, sweden, designs and manufactures collision repair equipment, and information and truck alignment systems. the acquisition of car-o-liner complemented and increased snap-ons existing equipment and repair and service information product offerings, broadened its established capabilities in serving vehicle repair facilities and further expanded the companys presence with repair shop owners and managers. for segment reporting purposes, substantially all of car-o-liners results of operations and assets have been included in the repair systems & information group since the acquisition date, with the remaining portions included in the commercial & industrial group.
on july 27, 2015, snap-on acquired the assets of ecotechnics s.p.a. (ecotechnics) for a cash purchase price of $11.8 million. ecotechnics, based in sesto fiorentino, italy, designs and manufactures vehicle air conditioning service equipment for oem dealerships and the automotive aftermarket worldwide. the acquisition of the ecotechnics product line complemented and increased snap-ons existing equipment product offering for oem dealerships and independent automotive repair shops, broadened its established capabilities in serving vehicle repair facilities, and expanded the companys presence with repair shop owners and managers. for segment reporting purposes, the results of operations and assets of ecotechnics have been included in the repair systems & information group since the acquisition date.
pro forma financial information has not been presented for any of these acquisitions as the net effects, individually and collectively, were neither significant nor material to snap-ons results of operations or financial position.
28   snap-on incorporated consolidated net sales of $3,686.9 million in 2017 increased $256.5 million, or 7.5%, from 2016 levels, reflecting a $115.0 million, or 3.4%, increase in organic sales (a non-gaap financial measure that excludes acquisition-related sales and the impact of foreign currency translation) and $141.5 million of acquisition-related sales. foreign currency translation had no effect on net sales in 2017.
operating earnings before financial services of $664.0 million in 2017, including $8.6 million of unfavorable foreign currency effects, increased $8.5 million, or 1.3%, as compared to $655.5 million last year. fiscal 2017 results included a $30.9 million charge related to a judgment in a patent-related litigation matter and a $15.0 million charge related to a judgment in an employment-related litigation matter brought by an individual (collectively, the legal matters); both judgments are being appealed. the company can provide no assurance as to the results of these appeals. as a percentage of net sales, operating earnings before financial services of 18.0% in 2017 compared to 19.1% last year.
operating earnings of $881.5 million in 2017, including $45.9 million of expense related to the legal matters and $9.0 million of unfavorable foreign currency effects, increased $27.3 million, or 3.2%, from $854.2 million last year. as a percentage of revenues (net sales plus financial services revenue), operating earnings of 22.0% in 2017 compared to 23.0% last year.
in 2017, net earnings attributable to snap-on were $557.7 million, or $9.52 per diluted share, including $28.4 million, or $0.48 per diluted share, for the after-tax expense related to the legal matters, and $7.0 million, or $0.12 per diluted share, of tax expense as a result of the implementation of h.r.1, formerly known as the u.s. tax cuts and jobs act (the tax act). net earnings attributable to snap-on incorporated in 2016 were $546.4 million or $9.20 per diluted share.
impact of the tax act on december 22, 2017, the u.s. government passed the tax act. the tax act makes broad and complex changes to the u.s. tax code, including, but not limited to: (i) reducing the future u.s. federal corporate tax rate from 35 percent to 21 percent; (ii) requiring companies to pay a one-time transition tax on certain unremitted earnings of foreign subsidiaries; and (iii) bonus depreciation that will allow for full expensing of qualified property.
the tax act also established new tax laws that will affect 2018, including, but not limited to: (i) the reduction of the u.s. federal corporate tax rate discussed above; (ii) a general elimination of u.s. federal income taxes on dividends from foreign subsidiaries; (iii) a new provision designed to tax global intangible low-taxed income (gilti); (iv) the repeal of the domestic production activity deductions; (v) limitations on the deductibility of certain executive compensation; (vi) limitations on the use of foreign tax credits to reduce the u.s. income tax liability; and (vii) a new provision that allows a domestic corporation an immediate deduction for a portion of its foreign derived intangible income (fdii).
the securities and exchange commission staff issued staff accounting bulletin (sab) 118, which provides guidance on accounting for the tax effects of the tax act. sab 118 provides a measurement period that should not extend beyond one year from the tax act enactment date for companies to complete the related accounting under asc 740, accounting for income taxes. in accordance with sab 118, a company must reflect the income tax effects of those aspects of the tax act for which the accounting under asc 740 is complete. to the extent that a companys accounting for a certain income tax effect of the tax act is incomplete, but it is able to determine a reasonable estimate, it must record a provisional estimate in the financial statements. if a company cannot determine a provisional estimate to be included in the financial statements, it should continue to apply asc 740 on the basis of the provisions of the tax laws that were in effect immediately before the enactment of the tax act.
2017 annual report   29
managements discussion and analysis of financial condition and results of operations (continued)
the companys accounting for certain elements of the tax act is incomplete. however, the company was able to make reasonable estimates of the effects and, therefore, recorded provisional estimates for these items. in connection with its initial analysis of the impact of the tax act, the company has recorded a provisional discrete net tax expense of $7.0 million in the period ended december 30, 2017. this provisional estimate consists of a net expense of $13.7 million for the one-time transition tax and a net benefit of $6.7 million related to revaluation of deferred tax assets and liabilities, caused by the new lower corporate tax rate. to determine the transition tax, the company must determine the amount of post-1986 accumulated earnings and profits of the relevant subsidiaries, as well as the amount of non-u.s. income taxes paid on such earnings. while the company was able to make a reasonable estimate of the transition tax, it is continuing to gather additional information to more precisely compute the final amount. likewise, while the company was able to make a reasonable estimate of the impact of the reduction to the corporate tax rate, it may be affected by other analyses related to the tax act, including, but not limited to, the state tax effect of adjustments made to federal temporary differences. due to the complexity of the new gilti tax rules, the company is continuing to evaluate this provision of the tax act and the application of asc 740. under gaap, the company is allowed to make an accounting policy choice to either: (1) treat taxes due on future u.s. inclusions in taxable income related to gilti as a current-period expense when incurred (the period cost method); or (2) factor in such amounts into a companys measurement of its deferred taxes (the deferred method). the companys selection of an accounting policy with respect to the new gilti tax rules is dependent on additional analysis and potential future modifications to existing structure, which are not currently known. accordingly, the company has not made any adjustments related to potential gilti tax in our financial statements and have not made a policy decision regarding whether to record deferred taxes on gilti. the company will continue to analyze the full effects of the tax act on its financial statements. the impact of the tax act may differ from the current estimate, possibly materially, due to changes in interpretations and assumptions the company has made, future guidance that may be issued and actions the company may take as a result of the law.
the commercial & industrial group consists of business operations serving a broad range of industrial and commercial customers worldwide, including customers in the aerospace, natural resources, government, power generation, transportation and technical education market segments (collectively, critical industries), primarily through direct and distributor channels. segment net sales of $1,265.0 million in 2017 increased $116.7 million, or 10.2%, from 2016 levels, reflecting a $52.0 million, or 4.5%, organic sales gain and $65.5 million of acquisition-related sales, partially offset by $0.8 million of unfavorable foreign currency translation. the organic sales increase includes higher sales to customers in critical industries and in the segments european-based hand tools business, partially offset by lower sales in the segments power tools operation. operating earnings of $185.3 million in 2017 increased $17.3 million, or 10.3%, from 2016 levels, primarily due to increased organic sales volume, acquisitions, and $0.4 million of favorable foreign currency effects.
the commercial & industrial group intends to continue building on the following strategic priorities in 2018:
   continuing to invest in emerging market growth initiatives;

   expanding our business with existing customers and reaching new customers in critical industries and other market segments;

   broadening our product offering and engineered solutions designed particularly for critical industry segments;

   increasing our customer-connection-driven understanding of work across multiple industries;

   investing in innovation that, guided by that understanding of work, delivers an ongoing stream of productivity-enhancing solutions; and

   continuing to reduce structural and operating costs through rci initiatives.

the snap-on tools group consists of business operations primarily serving vehicle service and repair technicians through the companys worldwide mobile tool distribution channel. segment net sales of $1,625.1 million in 2017 decreased $8.8 million, or 0.5%, from 2016 levels, reflecting a $6.9 million, or 0.4%, organic sales decline and $1.9 million of unfavorable foreign currency translation. the organic sales decrease includes a decline in the companys u.s. franchise operations that was partially offset by higher sales in the international franchise operations. operating earnings of $274.5 million in 2017 decreased $6.6 million, or 2.3%, from 2016 levels primarily due to $7.9 million of unfavorable foreign currency effects, partially offset by lower operating expenses.
30   snap-on incorporated despite the net sales challenges in 2017, the snap-on tools group remained focused on its fundamental, strategic initiatives to strengthen the franchise network and enhance franchisee profitability. in 2018, the snap-on tools group intends to continue these initiatives, with specific focus on the following:
   continuing to improve franchisee satisfaction, productivity, profitability and commercial health;

   developing new programs and products to expand market coverage, reaching new technicians and increasing penetration with existing customers;

   increasing investment in new product innovation and development; and

   increasing customer service levels and productivity in back office support functions, manufacturing and the supply chain through rci initiatives and investment.

by focusing on these areas, we believe that snap-on, as well as its franchisees, will have the opportunity to continue to serve customers more effectively, more profitably and with improved satisfaction.
the repair systems & information group consists of business operations serving other professional vehicle repair customers worldwide, primarily owners and managers of independent repair shops and oem dealerships through direct and distributor channels. segment net sales of $1,347.2 million in 2017 increased $167.3 million, or 14.2%, from 2016 levels, reflecting an $89.6 million, or 7.6%, organic sales gain, $76.0 million of acquisition-related sales and $1.7 million of favorable foreign currency translation. the organic sales increase primarily reflects higher sales to oem dealerships, as well as increased sales to independent repair shop owners and managers, including higher sales of diagnostic and repair information products, and increased sales of undercar equipment. operating earnings of $333.8 million in 2017 increased $36.0 million, or 12.1%, from 2016 levels, primarily due to higher sales, including acquisition-related sales, and savings from rci initiatives, partially offset by $1.1 million of unfavorable foreign currency effects.
the repair systems & information group intends to focus on the following strategic priorities in 2018:
   expanding the product offering with new products and services, thereby providing more to sell to repair shop owners and managers;

   continuing software and hardware upgrades to further improve functionality, performance and efficiency;

   leveraging integration of software solutions;

   continuing productivity advancements through rci initiatives and leveraging of resources; and

   increasing penetration in geographic markets, including emerging markets.

financial services revenue was $313.4 million in 2017 and $281.4 million in 2016; originations of $1,072.0 million in 2017 decreased $3.7 million, or 0.3%, from 2016 levels. in 2017, operating earnings from financial services of $217.5 million, including $0.4 million of unfavorable foreign currency effects, increased $18.8 million, or 9.5%, from $198.7 million last year. in recent years, snap-on has steadily grown its financial services portfolio by providing financing for new finance and contract receivables originated by our global financial services operations.
financial services intends to focus on the following strategic priorities in 2018:
   delivering financial products and services that attract and sustain profitable franchisees and support snap-ons strategies for expanding market coverage and penetration;

   improving productivity levels and ensuring high quality in all financial products and processes through the use of rci initiatives; and

   maintaining healthy portfolio performance levels.

cash flows net cash provided by operating activities of $608.5 million in 2017 increased $32.4 million from $576.1 million in 2016. the $32.4 million increase is primarily due to $12.6 million of higher net earnings and $14.9 million of cash proceeds from the settlement of a treasury lock. net cash provided by operating activities was $507.2 million in 2015.
2017 annual report   31
managements discussion and analysis of financial condition and results of operations (continued)
net cash used by investing activities of $341.4 million in 2017 included additions to finance receivables of $892.0 million, partially offset by collections of $712.7 million, as well as $82.9 million (net of $1.8 million of cash acquired) for the acquisitions of btc, norbar, and tcs, and working capital adjustments for the car-o-liner and sturtevant richmont acquisitions. net cash used by investing activities of $473.4 million in 2016 included additions to finance receivables of $915.0 million, partially offset by collections of $671.7 million, as well as, on a preliminary basis, a total of $160.4 million (net of $4.3 million of cash acquired) for the acquisitions of car-o-liner and sturtevant richmont. net cash used by investing activities of $306.4 million in 2015 included additions to finance receivables of $844.2 million, partially offset by collections of $624.8 million, as well as $11.8 million for the acquisition of ecotechnics. capital expenditures in 2017, 2016 and 2015 totaled $82.0 million, $74.3 million and $80.4 million, respectively. capital expenditures in all three years included investments to support the companys execution of its strategic growth initiatives and value creation processes around safety, quality, customer connection, innovation and savings from the companys rci initiatives.
net cash used by financing activities of $256.1 million in 2017 included the january 2017 repayment of $150 million of 5.5% unsecured notes upon maturity (the 2017 notes). these amounts were partially offset by snap-ons sale, on february 15, 2017, of $300 million of unsecured 3.25% notes that mature on march 1, 2027 (the 2027 notes) at a discount, from which snap-on received $297.8 million of net proceeds, reflecting $1.9 million of transaction costs. net cash used by financing activities in 2017 also included $287.9 million for the repurchase of 1,820,000 shares of snap-ons common stock and $169.4 million for dividend payments to shareholders, partially offset by $46.2 million of proceeds from stock purchase and option plan exercises and $30.6 million of proceeds from a net increase in notes payable and other short-term borrowings. net cash used by financing activities of $116.0 million in 2016 included $147.5 million for dividend payments to shareholders and $120.4 million for the repurchase of 758,000 shares of snap-ons common stock, partially offset by $134.2 million of proceeds from a net increase in notes payable and other short-term borrowings and $41.8 million of proceeds from stock purchase and option plan exercises. net cash used by financing activities of $236.7 million in 2015 included $127.9 million for dividend payments to shareholders, $110.4 million for the repurchase of 723,000 shares of snap-ons common stock and $34.0 million from a net decrease in notes payable and other short-term borrowings, partially offset by $41.6 million of proceeds from stock purchase and option plan exercises.
fiscal year snap-ons fiscal year ends on the saturday that is on or nearest to december 31. unless otherwise indicated, references in this managements discussion and analysis of financial condition and results of operations to fiscal 2017 or 2017 refer to the fiscal year ended december 30, 2017; references to fiscal 2016 or 2016 refer to the fiscal year ended december 31, 2016; and references to fiscal 2015 or 2015 refer to the fiscal year ended january 2, 2016. references in this document to 2017, 2016 and 2015 year end refer to december 30, 2017, december 31, 2016, and january 2, 2016, respectively.
snap-ons 2017, 2016 and 2015 fiscal years each contained 52 weeks of operating results.
32   snap-on incorporated results of operations
2017 vs. 2016
results of operations for 2017 and 2016 are as follows:
(amounts in millions)                                   2017                                    2016                                                                change net sales                                                          $3,686.9            100.0%              $3,430.4            100.0%          $256.5                 7.5%
cost of goods sold                                                (1,862.0)            -50.5%             (1,720.8)            -50.2%         (141.2)                -8.2%
gross profit                                                        1,824.9             49.5%               1,709.6             49.8%           115.3                 6.7%
operating expenses                                                (1,160.9)            -31.5%             (1,054.1)            -30.7%         (106.8)               -10.1%
operating earnings before financial services                          664.0             18.0%                 655.5             19.1%             8.5                 1.3%
financial services revenue                                            313.4            100.0%                 281.4            100.0%            32.0                11.4%
financial services expenses                                          (95.9)            -30.6%                (82.7)            -29.4%          (13.2)               -16.0%
operating earnings from financial services                            217.5             69.4%                 198.7             70.6%            18.8                 9.5%
operating earnings                                                    881.5             22.0%                 854.2             23.0%            27.3                 3.2%
interest expense                                                     (52.4)             -1.3%                (52.2)             -1.4%           (0.2)                -0.4%
other income (expense)  net                                          (7.2)             -0.2%                 (0.6)                            (6.6)                   nm earnings before income taxes and equity earnings                      821.9             20.5%                 801.4             21.6%            20.5                 2.6%
income tax expense                                                  (250.9)             -6.2%               (244.3)             -6.6%           (6.6)                -2.7%
earnings before equity earnings                                       571.0             14.3%                 557.1             15.0%            13.9                 2.5%
equity earnings, net of tax                                             1.2                                    2.5              0.1%           (1.3)                   nm net earnings                                                          572.2             14.3%                 559.6             15.1%            12.6                 2.3%
net earnings attributable to noncontrolling interests                (14.5)             -0.4%                (13.2)             -0.4%           (1.3)                -9.8%
net earnings attributable to snap-on inc.                            $557.7             13.9%                $546.4             14.7%           $11.3                 2.1%
nm: not meaningful percentage disclosure: all income statement line item percentages below operating earnings from financial services are calculated as a percentage of the sum of net sales and financial services revenue.
net sales of $3,686.9 million in 2017 increased $256.5 million, or 7.5%, from 2016 levels, reflecting a $115.0 million, or 3.4%, organic sales gain and $141.5 million of acquisition-related sales. foreign currency translation had no effect on net sales in 2017.
gross profit of $1,824.9 million in 2017 compared to $1,709.6 million last year. gross margin (gross profit as a percentage of net sales) of 49.5% in 2017 decreased 30 basis points (100 basis points (bps) equals 1.0 percent) from 49.8% last year primarily due to 20 bps of unfavorable foreign currency effects and a 20 bps impact from acquisitions, partially offset by rci savings. restructuring costs included in gross profit were $0.8 million in 2016.
operating expenses of $1,160.9 million in 2017 compared to $1,054.1 million last year, as 2017 included $45.9 million of charges related to the legal matters. the operating expense margin (operating expenses as a percentage of net sales) of 31.5% in 2017 increased 80 bps from 30.7% last year as 130 bps for the legal matters and 30 bps of operating expenses from acquisitions were partially offset by benefits from sales volume leverage. restructuring costs included in operating expenses were $0.1 million in 2016.
2017 annual report   33
managements discussion and analysis of financial condition and results of operations (continued)
operating earnings before financial services of $664.0 million in 2017, including $45.9 million of expense related to the legal matters and $8.6 million of unfavorable foreign currency effects, increased $8.5 million, or 1.3%, as compared to $655.5 million last year. as a percentage of net sales, operating earnings before financial services of 18.0%, including 130 bps impact from the legal matters, compared to 19.1% last year.
financial services revenue of $313.4 million in 2017 compared to revenue of $281.4 million last year. financial services operating earnings of $217.5 million in 2017 increased $18.8 million, or 9.5%, as compared to $198.7 million last year, including $0.4 million of unfavorable foreign currency effects. the year-over-year increases in both revenue and operating earnings primarily reflect continued growth of the companys financial services portfolio.
operating earnings of $881.5 million in 2017, including $45.9 million of expense related to the legal matters and $9.0 million of unfavorable foreign currency effects, increased $27.3 million, or 3.2%, from $854.2 million last year. as a percentage of revenues, operating earnings of 22.0% compared to 23.0% last year.
interest expense of $52.4 million in 2017 increased $0.2 million from $52.2 million last year. see note 9 to the consolidated financial statements for information on snap-ons debt and credit facilities.
other income (expense)  net was expense of $7.2 million and $0.6 million in 2017 and 2016, respectively. other income (expense)  net reflects net losses and gains associated with hedging and currency exchange rate transactions, and interest income. see note 16 to the consolidated financial statements for information on other income (expense)  net.
snap-ons effective income tax rate on earnings attributable to snap-on was 31.1% in 2017, including a 0.4% benefit from the legal matters, compared to 31.0% in 2016. the 2017 tax rate includes a $7.0 million, or 90 bps, impact from the implementation of the tax act, including the estimated transition tax of $13.7 million on previously unremitted foreign earnings, partially offset by a $6.7 million estimated tax benefit related to revaluation of deferred tax assets and liabilities. see note 8 to the consolidated financial statements for information on income taxes.
net earnings attributable to snap-on of $557.7 million, or $9.52 per diluted share, in 2017, including $28.4 million, or $0.48 per diluted share, for the after-tax expense related to the legal matters, and $7.0 million, or $0.12 per diluted share related to the tax act, increased $11.3 million, or $0.32 per diluted share, from 2016 levels. net earnings attributable to snap-on in 2016 were $546.4 million or $9.20 per diluted share.
segment results snap-ons business segments are based on the organization structure used by management for making operating and investment decisions and for assessing performance. snap-ons reportable business segments are: (i) the commercial & industrial group; (ii) the snap-on tools group; (iii) the repair systems & information group; and (iv) financial services. the commercial & industrial group consists of business operations serving a broad range of industrial and commercial customers worldwide, including customers in the aerospace, natural resources, government, power generation, transportation and technical education market segments (collectively, critical industries), primarily through direct and distributor channels. the snap-on tools group consists of business operations primarily serving vehicle service and repair technicians through the companys worldwide mobile tool distribution channel. the repair systems & information group consists of business operations serving other professional vehicle repair customers worldwide, primarily owners and managers of independent repair shops and oem dealerships through direct and distributor channels. financial services consists of the business operations of snap-ons finance subsidiaries.
snap-on evaluates the performance of its operating segments based on segment revenues, including both external and intersegment net sales, and segment operating earnings. snap-on accounts for intersegment sales and transfers based primarily on standard costs with reasonable mark-ups established between the segments. identifiable assets by segment are those assets used in the respective reportable segments operations. corporate assets consist of cash and cash equivalents (excluding cash held at financial services), deferred income taxes and certain other assets. all significant intersegment amounts are eliminated to arrive at snap-ons consolidated financial results.
34   snap-on incorporated commercial & industrial group
(amounts in millions)        2017                                 2016                                                            change external net sales                     $986.1             78.0%             $863.0             75.2%         $123.1                14.3%
intersegment net sales                  278.9             22.0%              285.3             24.8%          (6.4)                -2.2%
segment net sales                     1,265.0            100.0%            1,148.3            100.0%          116.7                10.2%
cost of goods sold                    (766.9)            -60.6%            (698.3)            -60.8%         (68.6)                -9.8%
gross profit                            498.1             39.4%              450.0             39.2%           48.1                10.7%
operating expenses                    (312.8)            -24.8%            (282.0)            -24.6%         (30.8)               -10.9%
segment operating earnings             $185.3             14.6%             $168.0             14.6%          $17.3                10.3%
segment net sales of $1,265.0 million in 2017 increased $116.7 million, or 10.2%, from 2016 levels, reflecting a $52.0 million or 4.5%, organic sales gain and $65.5 million of acquisition-related sales, partially offset by $0.8 million of unfavorable foreign currency translation. the organic sales increase primarily includes a high single-digit gain in sales to customers in critical industries, and a mid single-digit gain in the segments european-based hand tools business. these organic sales gains were partially offset by a low single-digit decline in sales in the segments power tools operations.
segment gross profit of $498.1 million in 2017 compared to $450.0 million last year. gross margin of 39.4% in 2017 improved 20 bps from 39.2% last year primarily due to savings from rci and other cost reduction initiatives.
segment operating expenses of $312.8 million in 2017 compared to $282.0 million last year. the operating expense margin of 24.8% in 2017 increased 20 bps from 24.6% last year as 40 bps of operating expenses from acquisitions and increased costs for research and engineering activities were partially offset by benefits from sales volume leverage.
as a result of these factors, segment operating earnings of $185.3 million in 2017, including $0.4 million of favorable foreign currency effects, increased $17.3 million from 2016 levels. operating margin (segment operating earnings as a percentage of segment net sales) for the commercial & industrial group was 14.6% in both years.
snap-on tools group
(amounts in millions)        2017                                  2016                                  change segment net sales                     $1,625.1            100.0%            $1,633.9            100.0%   $(8.8)                    -0.5%
cost of goods sold                     (930.9)            -57.3%             (929.8)            -56.9%         (1.1)               -0.1%
gross profit                             694.2             42.7%               704.1             43.1%         (9.9)               -1.4%
operating expenses                     (419.7)            -25.8%             (423.0)            -25.9%   3.3                        0.8%
segment operating earnings              $274.5             16.9%              $281.1             17.2%   $(6.6)                    -2.3%
segment net sales of $1,625.1 million in 2017 decreased $8.8 million, or 0.5%, from 2016 levels, reflecting a $6.9 million, or 0.4%, organic sales decrease and $1.9 million of unfavorable foreign currency translation. the organic sales decrease reflects a low single-digit decline in the companys u.s. franchise operations partially offset by a high single-digit gain in the international franchise operations.
segment gross profit of $694.2 million in 2017 compared to $704.1 million last year. gross margin of 42.7% in 2017 decreased from 43.1% last year due to 40 bps of unfavorable foreign currency effects.
segment operating expenses of $419.7 million in 2017 compared to $423.0 million last year. the operating expense margin of 25.8% in 2017 improved 10 bps from 25.9% last year.
as a result of these factors, segment operating earnings of $274.5 million in 2017, including $7.9 million of unfavorable foreign currency effects, decreased $6.6 million from 2016 levels. operating margin for the snap-on tools group of 16.9% in 2017 compared to 17.2% last year.
2017 annual report   35
managements discussion and analysis of financial condition and results of operations (continued)
repair systems & information group
(amounts in millions)        2017                                  2016                                                            change external net sales                    $1,075.7             79.8%             $933.5             79.1%         $142.2                15.2%
intersegment net sales                   271.5             20.2%              246.4             20.9%           25.1                10.2%
segment net sales                      1,347.2            100.0%            1,179.9            100.0%          167.3                14.2%
cost of goods sold                     (714.6)            -53.0%            (624.4)            -52.9%         (90.2)               -14.4%
gross profit                             632.6             47.0%              555.5             47.1%           77.1                13.9%
operating expenses                     (298.8)            -22.2%            (257.7)            -21.9%         (41.1)               -15.9%
segment operating earnings              $333.8             24.8%             $297.8             25.2%          $36.0                12.1%
segment net sales of $1,347.2 million in 2017 increased $167.3 million, or 14.2%, from 2016 levels, reflecting an $89.6 million, or 7.6%, organic sales gain, $76.0 million of acquisition-related sales and $1.7 million of favorable foreign currency translation. the organic sales increase includes a double-digit gain in sales to oem dealerships, a high single-digit gain in sales of diagnostic and repair information products to independent repair shop owners and managers, and mid single-digit increases in sales of undercar equipment.
segment gross profit of $632.6 million in 2017 compared to $555.5 million last year. gross margin of 47.0% in 2017 decreased 10 bps from 47.1% last year, as the impact from higher sales of lower gross margin products were partially offset by savings from rci initiatives and 20 bps of benefits from acquisitions. restructuring costs included in gross profit were $0.8 million in 2016.
segment operating expenses of $298.8 million in 2017 compared to $257.7 million last year. the operating expense margin of 22.2% in 2017 increased 30 bps from 21.9% last year primarily due to a 120 bps impact from acquisitions, partially offset by benefits from sales volume leverage. restructuring costs included in operating expenses were $0.1 million in 2016.
as a result of these factors, segment operating earnings of $333.8 million in 2017, including $1.1 million of unfavorable foreign currency effects, increased $36.0 million from 2016 levels. operating margin for the repair systems & information group of 24.8% in 2017 compared to 25.2% last year.
financial services
(amounts in millions)         2017                                2016                                                          change financial services revenue             $313.4            100.0%            $281.4            100.0%         $32.0                11.4%
financial services expenses            (95.9)            -30.6%            (82.7)            -29.4%        (13.2)               -16.0%
segment operating earnings             $217.5             69.4%            $198.7             70.6%         $18.8                 9.5%
financial services revenue of $313.4 million in 2017 increased $32.0 million, or 11.4%, from $281.4 million last year primarily reflecting $34.9 million of higher revenue as a result of continued growth of the companys financial services portfolio, partially offset by $2.9 million of decreased revenue from lower average yields on finance and contract receivables. in 2017 and 2016, the respective average yields on finance receivables were 17.9% and 18.0%, and the respective average yield on contract receivables were 9.2% and 9.4%. originations of $1,072.0 million in 2017 decreased $3.7 million, or 0.3%, from 2016 levels.
financial services expenses primarily include personnel-related and other general and administrative costs, as well as provisions for credit losses. these expenses are generally more dependent on changes in the financial services portfolio than they are on the revenue of the segment. financial services expenses of $95.9 million in 2017 increased from $82.7 million last year primarily due to changes in both the provisions for credit losses and in the size of the portfolio. as a percentage of the average financial services portfolio, financial services expenses were 5.0% and 4.9% in 2017 and 2016, respectively.
financial services operating earnings of $217.5 million in 2017, including $0.4 million of unfavorable foreign currency effects, increased $18.8 million, or 9.5%, from 2016 levels.
see note 1 and note 3 to the consolidated financial statements for further information on financial services.
36   snap-on incorporated corporate snap-ons general corporate expenses in 2017 of $129.6 million increased $38.2 million from $91.4 million last year. the year-over-year increase in general corporate expenses primarily reflects $45.9 million of expense related to the legal matters, partially offset by lower performance-based compensation costs and lower pension expenses.
fourth quarter results of operations for the fourth quarters of 2017 and 2016 are as follows:
fourth quarter
(amounts in millions)                                   2017                                        2016                                                                change net sales                                                         $974.6               100.0%                  $889.8               100.0%          $84.8                 9.5%
cost of goods sold                                               (509.3)               -52.3%                 (445.9)               -50.1%         (63.4)               -14.2%
gross profit                                                       465.3                47.7%                   443.9                49.9%           21.4                 4.8%
operating expenses                                               (307.6)               -31.5%                 (267.8)               -30.1%         (39.8)               -14.9%
operating earnings before financial services                       157.7                16.2%                   176.1                19.8%         (18.4)               -10.4%
financial services revenue                                          79.9               100.0%                    74.2               100.0%            5.7                 7.7%
financial services expenses                                       (25.5)               -31.9%                  (22.6)               -30.5%          (2.9)               -12.8%
operating earnings from financial services                          54.4                68.1%                    51.6                69.5%            2.8                 5.4%
operating earnings                                                 212.1                20.1%                   227.7                23.6%         (15.6)                -6.9%
interest expense                                                  (13.6)                -1.3%                  (13.1)                -1.4%          (0.5)                -3.8%
other income (expense)  net                                       (1.5)                -0.1%                   (0.3)                              (1.2)                   nm earnings before income taxes and equity earnings                   197.0                18.7%                   214.3                22.2%         (17.3)                -8.1%
income tax expense                                                (63.8)                -6.1%                  (64.9)                -6.7%            1.1                 1.7%
earnings before equity earnings                                    133.2                12.6%                   149.4                15.5%         (16.2)               -10.8%
equity earnings, net of tax                                                                                     0.3                              (0.3)                   nm net earnings                                                       133.2                12.6%                   149.7                15.5%         (16.5)               -11.0%
net earnings attributable to noncontrolling interests              (3.7)                -0.3%                   (3.4)                -0.3%          (0.3)                -8.8%
net earnings attributable to snap-on inc.                         $129.5                12.3%                  $146.3                15.2%        $(16.8)               -11.5%
nm: not meaningful percentage disclosure: all income statement line item percentages below operating earnings from financial services are calculated as a percentage of the sum of net sales and financial services revenue.
net sales of $974.6 million in the fourth quarter of 2017 increased $84.8 million, or 9.5%, from 2016 levels, reflecting a $38.9 million, or 4.3%, organic sales gain, $29.7 million of acquisition-related sales, and $16.2 million of favorable foreign currency translation.
gross profit of $465.3 million in the fourth quarter of 2017 compared to $443.9 million last year. gross margin of 47.7% in the quarter declined 220 bps from 49.9% last year primarily due to higher sales of lower gross margin products, 60 bps of lower gross margins on acquisition-related sales, and 20 bps of unfavorable foreign currency effects.
operating expenses of $307.6 million in the fourth quarter of 2017 compared to $267.8 million last year, as 2017 included a $30.9 million legal charge discussed above. the operating expense margin of 31.5% in the quarter increased 140 bps from 30.1% last year as 320 bps related to the legal charge were partially offset by benefits from sales volume leverage and a 40 bps benefit from operating expenses for acquisitions.
2017 annual report   37
managements discussion and analysis of financial condition and results of operations (continued)
operating earnings before financial services of $157.7 million in the fourth quarter of 2017, including $30.9 million of expense related to the legal charge, decreased $18.4 million, or 10.4%, as compared to $176.1 million last year. as a percentage of net sales, operating earnings before financial services of 16.2% in the quarter, including the legal charge, compared to 19.8% last year.
financial services revenue of $79.9 million in the fourth quarter of 2017 compared to revenue of $74.2 million last year. financial services operating earnings of $54.4 million in the fourth quarter of 2017, including $0.3 million of favorable foreign currency effects, increased $2.8 million, or 5.4%, as compared to $51.6 million last year. the year-over-year increases in both revenue and operating earnings primarily reflect continued growth of the companys financial services portfolio.
operating earnings of $212.1 million in the fourth quarter of 2017, including $1.8 million of favorable foreign currency effects and $30.9 million of expense for the legal charge, decreased $15.6 million, or 6.9%, from $227.7 million last year. as a percentage of revenues, operating earnings of 20.1% in the quarter compared to 23.6% last year.
interest expense of $13.6 million in the fourth quarter of 2017 increased $0.5 million from $13.1 million last year. see note 9 to the consolidated financial statements for information on snap-ons debt and credit facilities.
other income (expense)  net was expense of $1.5 million and $0.3 million in the respective fourth quarters of 2017 and 2016. see note 16 to the consolidated financial statements for information on other income (expense)  net.
snap-ons fourth quarter effective income tax rate on earnings attributable to snap-on was 33.0%, including a 1.2% benefit from the legal charge, in 2017 compared to 30.8% in 2016. the 2017 rate includes a $7.0 million, or 360 bps, impact related to the implementation of the tax act, including the estimated transition tax of $13.7 million on previously unremitted foreign earnings, partially offset by a $6.7 million estimated tax benefit related to revaluation of deferred tax assets and liabilities. see note 8 to the consolidated financial statements for information on income taxes.
net earnings attributable to snap-on of $129.5 million, or $2.24 per diluted share, in the fourth quarter of 2017, including $19.1 million, or $0.33 per diluted share, for the after-tax expense related to the legal charge, and $7.0 million, or $0.12 per diluted share related to the tax act, decreased $16.8 million, or $0.23 per diluted share, from 2016 levels. net earnings attributable to snap-on in the fourth quarter of 2016 were $146.3 million or $2.47 per diluted share.
segment results commercial & industrial group fourth quarter
(amounts in millions)                                      2017                                         2016                             change external net sales                  $273.2                80.0%                  $218.5                76.3%         $54.7                25.0%
intersegment net sales                68.5                20.0%                    67.8                23.7%           0.7                 1.0%
segment net sales                    341.7               100.0%                   286.3               100.0%          55.4                19.4%
cost of goods sold                 (207.7)               -60.8%                 (170.9)               -59.7%        (36.8)               -21.5%
gross profit                         134.0                39.2%                   115.4                40.3%          18.6                16.1%
operating expenses                  (83.1)               -24.3%                  (71.5)               -25.0%        (11.6)               -16.2%
segment operating earnings           $50.9                14.9%                   $43.9                15.3%          $7.0                15.9%
segment net sales of $341.7 million in the fourth quarter of 2017 increased $55.4 million, or 19.4%, from 2016 levels, reflecting a $29.5 million, or 10.1%, organic sales gain, $19.1 million of acquisition-related sales and $6.8 million of favorable foreign currency translation. the organic sales increase primarily includes double-digit gains in both sales to customers in critical industries and the segments european-based hand tools business, as well as low single-digit gains in both the segments power tools and asia/pacific operations.
segment gross profit of $134.0 million in the fourth quarter of 2017 compared to $115.4 million last year. gross margin of 39.2% in the quarter declined 110 bps from 40.3% last year due to higher sales of lower gross margin products and 50 bps of unfavorable foreign currency effects.
38   snap-on incorporated segment operating expenses of $83.1 million in the fourth quarter of 2017 compared to $71.5 million last year. the operating expense margin of 24.3% in the quarter improved 70 bps from 25.0% last year primarily due to the benefits of sales volume leverage, partially offset by 50 bps of operating expenses from acquisitions.
as a result of these factors, segment operating earnings of $50.9 million in the fourth quarter of 2017, including $0.6 million of unfavorable foreign currency effects, increased $7.0 million from 2016 levels. operating margin for the commercial & industrial group of 14.9% in the fourth quarter of 2017 compared to 15.3% last year.
snap-on tools group fourth quarter
(amounts in millions)        2017                                        2016                                     change segment net sales                      $409.2               100.0%                  $417.5               100.0%   $(8.3)                    -2.0%
cost of goods sold                    (239.9)               -58.6%                 (242.0)               -58.0%   2.1                        0.9%
gross profit                            169.3                41.4%                   175.5                42.0%         (6.2)               -3.5%
operating expenses                    (102.0)               -25.0%                 (102.0)               -24.4%                                
segment operating earnings              $67.3                16.4%                   $73.5                17.6%   $(6.2)                    -8.4%
segment net sales of $409.2 million in the fourth quarter of 2017 decreased $8.3 million, or 2.0%, from 2016 levels, reflecting a $12.6 million, or 3.0%, organic sales decline, partially offset by $4.3 million of favorable foreign currency translation. the organic sales decrease reflects a mid single-digit decline in the companys u.s. franchise operations, partially offset by a mid single-digit gain in the international franchise operations.
segment gross profit of $169.3 million in the fourth quarter of 2017 compared to $175.5 million last year. gross margin of 41.4% in the quarter declined 60 bps from 42.0% due to the lower volume and related costs.
segment operating expenses of $102.0 million in the fourth quarter of 2017 was unchanged from last year. the operating expense margin of 25.0 % in the quarter increased 60 bps from 24.4% last year primarily due to the effect of lower sales.
as a result of these factors, segment operating earnings of $67.3 million in the fourth quarter of 2017, including $1.3 million of favorable foreign currency effects, decreased $6.2 million from 2016 levels. operating margin for the snap-on tools group of 16.4% in the fourth quarter of 2017 compared to 17.6% last year.
repair systems & information group fourth quarter
(amounts in millions)        2017                                        2016                                                               change external net sales                     $292.2                81.9%                  $253.8                79.4%         $38.4                15.1%
intersegment net sales                   64.6                18.1%                    66.0                20.6%         (1.4)                -2.1%
segment net sales                       356.8               100.0%                   319.8               100.0%          37.0                11.6%
cost of goods sold                    (194.8)               -54.6%                 (166.8)               -52.2%        (28.0)               -16.8%
gross profit                            162.0                45.4%                   153.0                47.8%           9.0                 5.9%
operating expenses                     (72.2)               -20.2%                  (70.5)               -22.0%         (1.7)                -2.4%
segment operating earnings              $89.8                25.2%                   $82.5                25.8%          $7.3                 8.8%
segment net sales of $356.8 million in the fourth quarter of 2017 increased $37.0 million, or 11.6%, from 2016 levels, reflecting a $20.2 million, or 6.2%, organic sales gain, $10.6 million of acquisition-related sales and $6.2 million of favorable foreign currency translation. the organic sales increase includes a double-digit gain in sales to oem dealerships, and a low single-digit gain in sales of diagnostic and repair information products to independent repair shop owners and managers.
2017 annual report   39
managements discussion and analysis of financial condition and results of operations (continued)
segment gross profit of $162.0 million in the fourth quarter of 2017 compared to $153.0 million last year. gross margin of 45.4% in the quarter decreased 240 bps from 47.8% last year as a 110 bps impact from acquisitions, higher sales of lower gross margin products, and 10 bps of unfavorable foreign currency impacts were partially offset by savings from rci initiatives.
segment operating expenses of $72.2 million in the fourth quarter of 2017 compared to $70.5 million last year. the operating expense margin of 20.2% improved 180 bps from 22.0% last year due to the higher sales volume and 80 bps of benefits from acquisitions, partially offset by 10 bps of unfavorable foreign currency effects.
as a result of these factors, segment operating earnings of $89.8 million in the fourth quarter of 2017, including $0.8 million of favorable foreign currency effects, increased $7.3 million from 2016 levels. operating margin for the repair systems & information group of 25.2% in the fourth quarter of 2017 compared to 25.8% last year.
financial services fourth quarter
(amounts in millions)         2017                                      2016                                                            change financial services revenue             $79.9               100.0%                 $74.2               100.0%         $5.7                 7.7%
financial services expenses           (25.5)               -31.9%                (22.6)               -30.5%        (2.9)               -12.8%
segment operating earnings             $54.4                68.1%                 $51.6                69.5%         $2.8                 5.4%
financial services revenue of $79.9 million in the fourth quarter of 2017 increased $5.7 million, or 7.7%, from $74.2 million last year primarily reflecting $7.7 million of higher revenue as a result of continued growth of the companys financial services portfolio, partially offset by $2.0 million of decreased revenue from lower average yields on finance and contract receivables. in the fourth quarters of 2017 and 2016, the respective average yields on finance receivables were 17.8% and 18.2%, and the respective average yields on contract receivables were 9.2% and 9.3%. originations of $265.0 million in the fourth quarter of 2017 increased $4.7 million, or 1.8%, from 2016 levels.
financial services expenses primarily include personnel-related and other general and administrative costs, as well as provisions for credit losses. these expenses are generally more dependent on changes in the financial services portfolio than they are on the revenue of the segment. financial services expenses of $25.5 million in the fourth quarter of 2017 increased from $22.6 million last year primarily due to changes in both the provisions for credit losses and in the size of the portfolio. as a percentage of the average financial services portfolio, financial services expenses were 1.3% for both the fourth quarters of 2017 and 2016.
financial services operating earnings of $54.4 million in the fourth quarter of 2017, including $0.3 million of favorable foreign currency effects, increased $2.8 million, or 5.4%, from 2016 levels.
see note 1 and note 3 to the consolidated financial statements for further information on financial services.
corporate snap-ons fourth quarter 2017 general corporate expenses of $50.3 million increased $26.5 million from $23.8 million last year primarily due to the $30.9 million legal charge, partially offset by lower performance-based compensation costs.
40   snap-on incorporated
2016 vs. 2015
results of operations for 2016 and 2015 are as follows:
(amounts in millions)                                   2016                                    2015                                                              change net sales                                                          $3,430.4            100.0%              $3,352.8            100.0%         $77.6                 2.3%
cost of goods sold                                                (1,720.8)            -50.2%             (1,704.5)            -50.8%        (16.3)                -1.0%
gross profit                                                        1,709.6             49.8%               1,648.3             49.2%          61.3                 3.7%
operating expenses                                                (1,054.1)            -30.7%             (1,053.7)            -31.5%         (0.4)                    
operating earnings before financial services                          655.5             19.1%                 594.6             17.7%          60.9                10.2%
financial services revenue                                            281.4            100.0%                 240.3            100.0%          41.1                17.1%
financial services expenses                                          (82.7)            -29.4%                (70.1)            -29.2%        (12.6)               -18.0%
operating earnings from financial services                            198.7             70.6%                 170.2             70.8%          28.5                16.7%
operating earnings                                                    854.2             23.0%                 764.8             21.3%          89.4                11.7%
interest expense                                                     (52.2)             -1.4%                (51.9)             -1.4%         (0.3)                -0.6%
other income (expense)  net                                          (0.6)                                  (2.4)             -0.1%           1.8                   nm earnings before income taxes and equity earnings                      801.4             21.6%                 710.5             19.8%          90.9                12.8%
income tax expense                                                  (244.3)             -6.6%               (221.2)             -6.2%        (23.1)               -10.4%
earnings before equity earnings                                       557.1             15.0%                 489.3             13.6%          67.8                13.9%
equity earnings, net of tax                                             2.5              0.1%                   1.3                            1.2                   nm net earnings                                                          559.6             15.1%                 490.6             13.6%          69.0                14.1%
net earnings attributable to noncontrolling interests                (13.2)             -0.4%                (11.9)             -0.3%         (1.3)               -10.9%
net earnings attributable to snap-on inc.                            $546.4             14.7%                $478.7             13.3%         $67.7                14.1%
nm: not meaningful percentage disclosure: all income statement line item percentages below operating earnings from financial services are calculated as a percentage of the sum of net sales and financial services revenue.
net sales of $3,430.4 million in 2016 increased $77.6 million, or 2.3%, from 2015 levels, reflecting a $96.2 million, or 2.9%, organic sales gain and $32.9 million of acquisition-related sales, partially offset by $51.5 million of unfavorable foreign currency translation.
gross profit of $1,709.6 million in 2016 compared to $1,648.3 million in 2015. gross margin of 49.8% in 2016 improved 60 basis points from 49.2% in 2015 as benefits from higher sales and savings from rci initiatives were partially offset by 20 bps of unfavorable foreign currency effects. restructuring costs included in gross profit were $0.8 million and zero in 2016 and 2015, respectively.
operating expenses of $1,054.1 million in 2016 compared to $1,053.7 million in 2015. the operating expense margin of 30.7% in 2016 improved 80 bps from 31.5% in 2015 primarily due to sales volume leverage and savings from rci initiatives, 30 bps of lower stock-based (mark-to-market) compensation and other expenses, including lower costs associated with the companys employee and franchisee stock purchase plans, and 20 bps of lower pension expense. restructuring costs included in operating expenses were $0.1 million and zero in 2016 and 2015, respectively.
operating earnings before financial services of $655.5 million in 2016, including $21.5 million of unfavorable foreign currency effects, increased $60.9 million, or 10.2%, as compared to $594.6 million in 2015. as a percentage of net sales, operating earnings before financial services of 19.1% in 2016 improved 140 bps from 17.7% in 2015.
2017 annual report   41
managements discussion and analysis of financial condition and results of operations (continued)
financial services revenue of $281.4 million in 2016 compared to revenue of $240.3 million in 2015. financial services operating earnings of $198.7 million in 2016, including $1.8 million of unfavorable foreign currency effects, increased $28.5 million, or 16.7%, as compared to $170.2 million in 2015. the year-over-year increases in both revenue and operating earnings primarily reflect continued growth of the companys financial services portfolio.
operating earnings of $854.2 million in 2016, including $23.3 million of unfavorable foreign currency effects, increased $89.4 million, or 11.7%, from $764.8 million in 2015. as a percentage of revenues, operating earnings of 23.0% in 2016 improved 170 bps from 21.3% in 2015.
interest expense of $52.2 million in 2016 increased $0.3 million from $51.9 million in 2015. see note 9 to the consolidated financial statements for information on snap-ons debt and credit facilities.
other income (expense)  net was expense of $0.6 million and $2.4 million in 2016 and 2015, respectively. see note 16 to the consolidated financial statements for information on other income (expense)  net.
snap-ons effective income tax rate on earnings attributable to snap-on was 31.0% in 2016 and 31.7% in 2015. see note 8 to the consolidated financial statements for information on income taxes.
net earnings attributable to snap-on of $546.4 million, or $9.20 per diluted share, in 2016 increased $67.7 million, or $1.10 per diluted share, from 2015 levels. net earnings attributable to snap-on in 2015 were $478.7 million or $8.10 per diluted share.
segment results commercial & industrial group
(amounts in millions)        2016                                 2015                                 change external net sales                     $863.0             75.2%             $895.5             77.0%   $(32.5)                    -3.6%
intersegment net sales                  285.3             24.8%              268.1             23.0%   17.2                        6.4%
segment net sales                     1,148.3            100.0%            1,163.6            100.0%         (15.3)               -1.3%
cost of goods sold                    (698.3)            -60.8%            (717.1)            -61.6%   18.8                        2.6%
gross profit                            450.0             39.2%              446.5             38.4%   3.5                         0.8%
operating expenses                    (282.0)            -24.6%            (277.1)            -23.8%          (4.9)               -1.8%
segment operating earnings             $168.0             14.6%             $169.4             14.6%   $(1.4)                     -0.8%
segment net sales of $1,148.3 million in 2016 decreased $15.3 million, or 1.3%, from 2015 levels, reflecting $20.6 million of unfavorable foreign currency translation partially offset by $4.2 million of acquisition-related sales and a $1.1 million, or 0.1%, organic sales gain. the organic sales increase primarily includes a mid single-digit gain in the segments european-based hand tools business and low single-digit increases in both the segments asia/pacific and power tools operations. these organic sales gains were largely offset by a mid single-digit decline in sales to customers in critical industries, primarily in the international aerospace and natural resources market segments.
segment gross profit of $450.0 million in 2016 compared to $446.5 million in 2015. gross margin of 39.2% in 2016 improved 80 bps from 38.4% in 2015 primarily due to savings from rci and other cost reduction initiatives, and 20 bps of favorable foreign currency effects.
segment operating expenses of $282.0 million in 2016 compared to $277.1 million in 2015. the operating expense margin of 24.6% in 2016 increased 80 bps from 23.8% in 2015 primarily due to higher costs, including costs associated with continued expansion initiatives in asia, a 20 bps benefit realized in 2015 from a gain on the sale of a former manufacturing facility, and 10 bps of unfavorable foreign currency effects.
as a result of these factors, segment operating earnings of $168.0 million in 2016, including $1.1 million of unfavorable foreign currency effects, decreased $1.4 million from 2015 levels. operating margin for the commercial & industrial group was 14.6% in both years.
42   snap-on incorporated snap-on tools group
(amounts in millions)        2016                                  2015                                                           change segment net sales                     $1,633.9            100.0%            $1,568.7            100.0%         $65.2                4.2%
cost of goods sold                     (929.8)            -56.9%             (885.7)            -56.5%        (44.1)               -5.0%
gross profit                             704.1             43.1%               683.0             43.5%          21.1                3.1%
operating expenses                     (423.0)            -25.9%             (427.0)            -27.2%           4.0                0.9%
segment operating earnings              $281.1             17.2%              $256.0             16.3%         $25.1                9.8%
segment net sales of $1,633.9 million in 2016 increased $65.2 million, or 4.2%, from 2015 levels, reflecting an $86.4 million, or 5.6%, organic sales gain partially offset by $21.2 million of unfavorable foreign currency translation. the organic sales increase includes mid single-digit gains in both the companys u.s. and international franchise operations.
segment gross profit of $704.1 million in 2016 compared to $683.0 million in 2015. gross margin of 43.1% in 2016 declined 40 bps from 43.5% in 2015 as 70 bps of unfavorable foreign currency effects were partially offset by benefits from higher sales.
segment operating expenses of $423.0 million in 2016 compared to $427.0 million in 2015. the operating expense margin of 25.9% in 2016 improved 130 bps from 27.2% in 2015 primarily due to sales volume leverage and savings from rci and other cost reduction initiatives, as well as 20 bps of lower stock-based costs associated with the companys franchisee stock purchase plan.
as a result of these factors, segment operating earnings of $281.1 million in 2016, including $15.3 million of unfavorable foreign currency effects, increased $25.1 million from 2015 levels. operating margin for the snap-on tools group of 17.2% in 2016 improved 90 bps from 16.3% in 2015.
repair systems & information group
(amounts in millions)        2016                                 2015                                                          change external net sales                     $933.5             79.1%             $888.6             79.8%         $44.9                5.1%
intersegment net sales                  246.4             20.9%              224.6             20.2%          21.8                9.7%
segment net sales                     1,179.9            100.0%            1,113.2            100.0%          66.7                6.0%
cost of goods sold                    (624.4)            -52.9%            (594.4)            -53.4%        (30.0)               -5.0%
gross profit                            555.5             47.1%              518.8             46.6%          36.7                7.1%
operating expenses                    (257.7)            -21.9%            (245.4)            -22.0%        (12.3)               -5.0%
segment operating earnings             $297.8             25.2%             $273.4             24.6%         $24.4                8.9%
segment net sales of $1,179.9 million in 2016 increased $66.7 million, or 6.0%, from 2015 levels, reflecting a $52.1 million, or 4.7%, organic sales gain and $28.7 million of acquisition-related sales, partially offset by $14.1 million of unfavorable foreign currency translation. the organic sales increase includes a high single-digit gain in sales of diagnostic and repair information products to independent repair shop owners and managers, and low single-digit increases in both sales of undercar equipment and sales to oem dealerships.
segment gross profit of $555.5 million in 2016 compared to $518.8 million in 2015. gross margin of 47.1% in 2016 improved 50 bps from 46.6% in 2015, as benefits from higher sales and savings from rci initiatives were partially offset by 10 bps of unfavorable currency effects. restructuring costs included in gross profit were $0.8 million and zero in 2016 and 2015, respectively.
segment operating expenses of $257.7 million in 2016 compared to $245.4 million in 2015. the operating expense margin of 21.9% in 2016 improved 10 bps from 22.0% in 2015 primarily due to sales volume leverage and savings from rci initiatives, partially offset by 20 bps of impact from the car-o-liner acquisition. restructuring costs included in operating expenses were $0.1 million and zero in 2016 and 2015, respectively.
2017 annual report   43
managements discussion and analysis of financial condition and results of operations (continued)
as a result of these factors, segment operating earnings of $297.8 million in 2016, including $5.1 million of unfavorable foreign currency effects, increased $24.4 million from 2015 levels. operating margin for the repair systems & information group of 25.2% in 2016 improved 60 bps from 24.6% in 2015.
financial services
(amounts in millions)         2016                                2015                                                          change financial services revenue             $281.4            100.0%            $240.3            100.0%         $41.1                17.1%
financial services expenses            (82.7)            -29.4%            (70.1)            -29.2%        (12.6)               -18.0%
segment operating earnings             $198.7             70.6%            $170.2             70.8%         $28.5                16.7%
financial services revenue of $281.4 million in 2016 increased $41.1 million, or 17.1%, from $240.3 million in 2015 primarily reflecting $38.1 million of higher revenue as a result of continued growth of the companys financial services portfolio and $2.7 million of increased revenue from higher average yields on finance receivables. in 2016 and 2015, the respective average yield on finance receivables was 18.0% and 17.8%, and the respective average yield on contract receivables was 9.4% and 9.5%. originations of $1,075.7 million in 2016 increased $82.0 million, or 8.3%, from 2015 levels.
financial services expenses primarily include personnel-related and other general and administrative costs, as well as provisions for credit losses. these expenses are generally more dependent on changes in the financial services portfolio than they are on the revenue of the segment. financial services expenses of $82.7 million in 2016 increased from $70.1 million in 2015 primarily due to changes in both the size of the portfolio and in the provisions for credit losses. as a percentage of the average financial services portfolio, financial services expenses were 4.9% and 4.8% in 2016 and 2015, respectively.
financial services operating earnings of $198.7 million in 2016, including $1.8 million of unfavorable foreign currency effects, increased $28.5 million, or 16.7%, from 2015 levels.
see note 1 and note 3 to the consolidated financial statements for further information on financial services.
corporate snap-ons general corporate expenses in 2016 of $91.4 million decreased $12.8 million from $104.2 million in 2015. the year-over-year decrease in general corporate expenses primarily reflects $6.9 million of lower pension expense, $6.4 million of lower stock-based (mark-to-market) compensation expense and $2.3 million of lower stock-based costs associated with the companys employee stock purchase plan, partially offset by $2.8 million of higher acquisition-related and other costs.
non-gaap supplemental data the following non-gaap supplemental data is presented for informational purposes to provide readers with insight into the information used by management for assessing the operating performance of snap-on incorporateds (snap-on) non-financial services (operations) and financial services businesses.
the supplemental operations data reflects the results of operations and financial position of snap-ons tools, diagnostic and equipment products, software and other non-financial services operations with financial services on the equity method. the supplemental financial services data reflects the results of operations and financial position of snap-ons u.s. and international financial services operations. the financing needs of financial services are met through intersegment borrowings and cash generated from operations; financial services is charged interest expense on intersegment borrowings at market rates. income taxes are charged to financial services on the basis of the specific tax attributes generated by the u.s. and international financial services businesses. transactions between the operations and financial services businesses were eliminated to arrive at the consolidated financial statements.
44   snap-on incorporated non-gaap supplemental consolidating data  supplemental statements of earnings information for 2017, 2016 and 2015 is as follows:
operations*                                            financial services
(amounts in millions)                                       2017                       2016                       2015                   2017                  2016                  2015
net sales                                                               $3,686.9                   $3,430.4                   $3,352.8                $                    $                    $
cost of goods sold                                                     (1,862.0)                  (1,720.8)                  (1,704.5)                                                           
gross profit                                                             1,824.9                    1,709.6                    1,648.3                                                           
operating expenses                                                     (1,160.9)                  (1,054.1)                  (1,053.7)                                                           
operating earnings before financial services                               664.0                      655.5                      594.6                                                           
financial services revenue                                                                                                                      313.4                 281.4                 240.3
financial services expenses                                                                                                                    (95.9)                (82.7)                (70.1)
operating earnings from financial services                                                                                                      217.5                 198.7                 170.2
operating earnings                                                         664.0                      655.5                      594.6             217.5                 198.7                 170.2
interest expense                                                          (52.1)                     (51.9)                     (51.4)             (0.3)                 (0.3)                 (0.5)
intersegment interest income (expense)  net                                70.8                       72.2                       62.7            (70.8)                (72.2)                (62.7)
other income (expense)  net                                               (7.2)                      (0.7)                      (2.4)                                    0.1                     
earnings before income taxes and equity earnings                           675.5                      675.1                      603.5             146.4                 126.3                 107.0
income tax expense                                                       (196.8)                    (197.7)                    (181.9)            (54.1)                (46.6)                (39.3)
earnings before equity earnings                                            478.7                      477.4                      421.6              92.3                  79.7                  67.7
financial services  net earnings attributable to snap-on                   92.3                       79.7                       67.7                                                           
equity earnings, net of tax                                                  1.2                        2.5                        1.3                                                           
net earnings                                                               572.2                      559.6                      490.6              92.3                  79.7                  67.7
net earnings attributable to noncontrolling interests                     (14.5)                     (13.2)                     (11.9)                                                           
net earnings attributable to snap-on                                      $557.7                     $546.4                     $478.7             $92.3                 $79.7                 $67.7
*   snap-on with financial services on the equity method.

2017 annual report   45
managements discussion and analysis of financial condition and results of operations (continued)
non-gaap supplemental consolidating data  supplemental balance sheet information as of 2017 and 2016 year end is as follows:
operations*                         financial services
(amounts in millions)                                 2017                     2016             2017                      2016
assets current assets:
cash and cash equivalents                            $91.8                    $77.5             $0.2                      $0.1
intersegment receivables                              17.1                     15.0                                         
trade and other accounts receivable  net            674.9                    598.2              0.7                       0.6
finance receivables  net                                                                    505.4                     472.5
contract receivables  net                             9.4                      7.9             87.4                      80.2
inventories  net                                    638.8                    530.5                                         
prepaid expenses and other assets                    117.6                    122.4              0.7                       1.1
total current assets                               1,549.6                  1,351.5            594.4                     554.5
property and equipment  net                         482.4                    423.8              2.0                       1.4
investment in financial services                     317.4                    288.7                                         
deferred income tax assets                            25.2                     49.1             26.8                      23.7
intersegment long-term notes receivable              583.7                    584.7                                         
long-term finance receivables  net                                                        1,039.2                     934.5
long-term contract receivables  net                  13.2                     11.2            309.4                     275.5
goodwill                                             924.1                    895.5                                         
other intangibles  net                              253.7                    184.6                                         
other assets                                          63.1                     47.9                                       0.1
total assets                                      $4,212.4                 $3,837.0         $1,971.8                  $1,789.7
*   snap-on with financial services on the equity method.

46   snap-on incorporated non-gaap supplemental consolidating data  supplemental balance sheet information (continued):
operations*                                financial services
(amounts in millions)                                2017                     2016                 2017                       2016
liabilities and equity current liabilities:
notes payable and current maturities of                          $183.2                   $151.4               $250.0                       $150.0
long-term debt accounts payable                                                  177.1                    170.3                  1.1                          0.6
intersegment payables                                                                                          17.1                         15.0
accrued benefits                                                   55.8                     52.8                                                
accrued compensation                                               67.8                     85.7                  3.7                          4.1
franchisee deposits                                                66.5                     66.7                                                
other accrued liabilities                                         366.0                    292.1                 29.7                         22.8
total current liabilities                                         916.4                    819.0                301.6                        192.5
long-term debt and intersegment long-term debt                                                              1,337.3                      1,293.5
deferred income tax liabilities                                    28.4                     13.1                                                
retiree health care benefits                                       36.0                     36.7                                                
pension liabilities                                               158.9                    246.5                                                
other long-term liabilities                                       100.4                     86.5                 15.5                         15.0
total liabilities                                               1,240.1                  1,201.8              1,654.4                      1,501.0
total shareholders equity attributable to snap-on              2,953.9                  2,617.2                317.4                        288.7
noncontrolling interests                                           18.4                     18.0                                                
total equity                                                    2,972.3                  2,635.2                317.4                        288.7
total liabilities and equity                                   $4,212.4                 $3,837.0             $1,971.8                     $1,789.7
*   snap-on with financial services on the equity method.

2017 annual report   47
managements discussion and analysis of financial condition and results of operations (continued)
liquidity and capital resources snap-ons growth has historically been funded by a combination of cash provided by operating activities and debt financing. on january 16, 2018, snap-on repaid $250 million of unsecured 4.25% notes (the 2018 notes), upon maturity with available cash and cash generated from issuances of commercial paper. snap-on believes that its cash from operations and collections of finance receivables, coupled with its sources of borrowings and available cash on hand, are sufficient to fund its currently anticipated requirements for scheduled debt repayments (including the repayment of $200 million of unsecured 6.70% notes, due march 1, 2019 (the 2019 notes)), payments of interest and dividends, new receivables originated by our financial services businesses, capital expenditures, working capital, the funding of pension plans, and funding for share repurchases and acquisitions, if and as they arise.
due to snap-ons credit rating over the years, external funds have been available at an acceptable cost. as of the close of business on february 9, 2018, snap-ons long-term debt and commercial paper were rated, respectively, a2 and p-1 by moodys investors service; a- and a-2 by standard & poors; and a and f1 by fitch ratings. snap-on believes that its current credit arrangements are sound and that the strength of its balance sheet affords the company the financial flexibility, including through access to financial markets for potential new financing, to respond to both internal growth opportunities and those available through acquisitions. however, snap-on cannot provide any assurances of the availability of future financing or the terms on which it might be available, or that its debt ratings may not decrease.
the following discussion focuses on information included in the accompanying consolidated balance sheets.
as of 2017 year end, working capital (current assets less current liabilities) of $926.0 million increased $31.5 million from $894.5 million as of 2016 year end primarily as a result of other net changes in working capital discussed below. as of 2016 year end, the 2018 notes were included in long-term debt on the accompanying consolidated balance sheet as their scheduled maturity was in excess of one year of the 2016 year-end balance sheet date.
the following represents the companys working capital position as of 2017 and 2016 year end:
(amounts in millions)                                    2017                  2016
cash and cash equivalents                                              $92.0               $77.6
trade and other accounts receivable  net                              675.6               598.8
finance receivables  net                                              505.4               472.5
contract receivables  net                                              96.8                88.1
inventories  net                                                      638.8               530.5
prepaid expenses and other assets                                      110.7               116.5
total current assets                                                 2,119.3             1,884.0
notes payable and current maturities of long-term debt               (433.2)             (301.4)
accounts payable                                                     (178.2)             (170.9)
other current liabilities                                            (581.9)             (517.2)
total current liabilities                                          (1,193.3)             (989.5)
working capital                                                       $926.0              $894.5
cash and cash equivalents of $92.0 million as of 2017 year end increased $14.4 million from 2016 year-end levels primarily due to (i) $712.7 million of cash from collections of finance receivables; (ii) $608.5 million of cash generated from operations, net of $60.0 million of discretionary cash contributions to the companys domestic pension plans; (iii) $297.8 million of net proceeds from the 2027 notes; (iv) $46.2 million of cash proceeds from stock purchase and option plan exercises; and (v) $30.6 million of net proceeds from notes payable and other short-term borrowings. these increases in cash and cash equivalents were partially offset by (i) the funding of $892.0 million of new finance receivables; (ii) the repurchase of 1,820,000 shares of the companys common stock for $287.9 million; (iii) dividend payments to shareholders of $169.4 million; (iv) the january 2017 repayment of $150 million of the 2017 notes; (v) the funding of $82.9 million for acquisitions; and (vi) the funding of $82.0 million of capital expenditures.
48   snap-on incorporated of the $92.0 million of cash and cash equivalents as of 2017 year end, $72.1 million was held outside of the united states. snap-on maintains non-u.s. funds in its foreign operations to: (i) provide adequate working capital; (ii) satisfy various regulatory requirements; and/or (iii) take advantage of business expansion opportunities as they arise. the repatriation of cash from certain foreign subsidiaries could have adverse net tax consequences on the company should snap-on be required to pay and record u.s. income taxes and foreign withholding taxes on such funds. alternatively, the repatriation of cash from certain other foreign subsidiaries could result in favorable net tax consequences for the company. snap-on periodically evaluates its cash held outside the united states and may pursue opportunities to repatriate certain foreign cash amounts to the extent that it does not incur unfavorable net tax consequences.
trade and other accounts receivable  net of $675.6 million as of 2017 year end increased $76.8 million from 2016 year-end levels primarily due to higher sales, $21.7 million of foreign currency translation and $9.5 million of receivables related to the norbar, btc and tcs acquisitions. days sales outstanding (trade and other accounts receivable  net as of the respective period end, divided by the respective trailing 12 months sales, times 360 days) was 66 days at 2017 year end and 63 days at 2016 year end.
the current portions of net finance and contract receivables of $602.2 million as of 2017 year end compared to $560.6 million at 2016 year end. the long-term portions of net finance and contract receivables of $1,361.8 million as of 2017 year end compared to $1,221.2 million at 2016 year end. the combined $182.2 million increase in net current and long-term finance and contract receivables over 2016 year-end levels is primarily due to continued growth of the companys financial services portfolio and $17.5 million of foreign currency translation.
