item 7: managements discussion and analysis of financial condition and results of operations management overview references in this managements discussion and analysis of financial condition and results of operations to organic sales refer to sales from continuing operations calculated in accordance with generally accepted accounting principles in the united states of america (gaap), excluding acquisition-related sales and the impact of foreign currency translation. management evaluates the companys sales performance based on organic sales growth, which primarily reflects growth from the companys existing businesses as a result of increased output, customer base and geographic expansion, new product development and/or pricing, and excludes sales contributions from acquired operations the company did not own as of the comparable prior-year reporting period. the companys organic sales disclosures also exclude the effects of foreign currency translation as foreign currency translation is subject to volatility that can obscure underlying business trends. management believes that the non-gaap financial measure of organic sales is meaningful to investors as it provides them with useful information to aid in identifying underlying growth trends in our businesses and facilitating comparisons of our sales performance with prior periods.
we believe our growth in 2016 demonstrates snap-ons continued progress in providing repeatability and reliability to a wide range of professional customers performing critical tasks in workplaces of consequence, as continued strengthening in the automotive repair sector combined with headwinds in certain industrial end markets that were most pronounced in the first half of the year. leveraging capabilities already demonstrated in the automotive repair arena, our coherent growth strategy focuses on developing and expanding our professional customer base, not only in automotive repair, but in adjacent markets, additional geographies and other areas, including in critical industries, where the cost and penalties for failure can be high.
we believe our 2016 operating results also provide continued evidence that snap-ons value proposition of making work easier for serious professionals in workplaces of consequence is an ongoing strength as we move forward along our runways for coherent growth:
   enhancing the franchise network, where we continued to focus on helping our franchisees extend their reach through innovative selling processes and productivity initiatives that break the traditional time and space barriers inherent in a mobile van;

                                                                                        expanding in the vehicle repair garage, where we continued to make significant progress in connecting with customers and translating the resulting insights into innovation that solves specific challenges in the repair facility. for example, the october 31, 2016 acquisition of car-o-liner holding ab (car-o-liner) broadened our established capabilities in serving vehicle repair facilities and further expanded our presence with repair shop owners and managers;

   further extending in critical industries, where we continued to grow our lines of products customized for specific industries, despite near-term challenges in certain industrial end markets; and

   building in emerging markets, where we continued to build manufacturing capacity, focused product lines and distribution capability.

we also believe our year-over-year improvement in operating margin further validates the potential of our snap-on value creation processes  our suite of strategic principles and processes we employ every day designed to create value and employed in the areas of safety, quality, customer connection, innovation and rapid continuous improvement.
our global financial services operations continue to serve a significant strategic role in offering financing options to our franchisees, to their customers, and to customers in other parts of our business. we expect that our global financial services business, which includes both snap-on credit llc (soc) in the united states and our other international finance subsidiaries, will continue to be a meaningful contributor to our operating earnings going forward.
snap-on has significant international operations and is subject to risks inherent with foreign operations, including foreign currency translation fluctuations.
26   snap-on incorporated recent acquisitions on november 16, 2016, snap-on acquired ryeson corporation (d/b/a sturtevant richmont) for a preliminary cash purchase price of $12.9 million (or $12.5 million, net of cash acquired). the preliminary purchase price is subject to change based upon the finalization of a working capital adjustment that is expected to be completed in the first quarter of 2017. sturtevant richmont, based in carol stream, illinois, designs, manufactures and distributes mechanical and electronic torque wrenches as well as wireless torque error proofing systems for a variety of industrial applications. the acquisition of sturtevant richmont enhanced and expanded snap-ons capabilities in providing solutions that address torque requirements, which are increasingly essential to critical mechanical performance. for segment reporting purposes, the results of operations and assets of sturtevant richmont have been included in the commercial & industrial group since the acquisition date.
on october 31, 2016, snap-on acquired car-o-liner for a preliminary cash purchase price of $151.8 million (or $147.9 million, net of cash acquired). the preliminary purchase price is subject to change based upon the finalization of a working capital adjustment that is expected to be completed in the first quarter of 2017. car-o-liner, based in gothenburg, sweden, designs and manufactures collision repair equipment, and information and truck alignment systems. the acquisition of car-o-liner complemented and increased snap-ons existing equipment and repair and service information product offerings, broadened its established capabilities in serving vehicle repair facilities and further expanded the companys presence with repair shop owners and managers. for segment reporting purposes, substantially all of car-o-liners results of operations and assets have been included in the repair systems & information group since the acquisition date, with the remaining portions included in the commercial & industrial group.
on july 27, 2015, snap-on acquired the assets of ecotechnics s.p.a. (ecotechnics) for a cash purchase price of $11.8 million. ecotechnics designs and manufactures vehicle air conditioning service equipment for original equipment manufacturer (oem) dealerships and the automotive aftermarket worldwide. the acquisition of the ecotechnics product line complemented and increased snap-ons existing equipment product offering for oem dealerships and independent automotive repair shops, broadened its established capabilities in serving vehicle repair facilities, and expanded the companys presence with repair shop owners and managers.
on may 28, 2014, snap-on acquired substantially all of the assets of pro-cut international inc. (pro-cut) for a cash purchase price of $41.3 million. pro-cut designs, manufactures and distributes on-car brake lathes, related equipment and accessories used in brake servicing by automotive repair facilities. the acquisition of the pro-cut product line complemented and increased snap-ons existing undercar equipment product offering, broadened its established capabilities in serving vehicle repair facilities and expanded the companys presence with repair shop owners and managers.
for segment reporting purposes, the results of operations and assets of ecotechnics and pro-cut have been included in the repair systems & information group since the respective acquisition dates.
pro forma financial information has not been presented for any of these acquisitions as the net effects, individually and collectively, were neither significant nor material to snap-ons results of operations or financial position.
consolidated net sales of $3,430.4 million in 2016 increased $77.6 million, or 2.3%, from 2015 levels, reflecting a $96.2 million, or 2.9%, increase in organic sales (a non-gaap financial measure that excludes acquisition-related sales and the impact of foreign currency translation) and $32.9 million of acquisition-related sales, partially offset by $51.5 million of unfavorable foreign currency translation.
operating earnings before financial services of $655.5 million in 2016 were up $60.9 million, or 10.2%, from 2015 levels, reflecting contributions from higher sales and improved operating margins, including contributions from rapid continuous improvement or rci initiatives, partially offset by $21.5 million of unfavorable foreign currency effects.
snap-ons rci initiatives employ a structured set of tools and processes across multiple businesses and geographies intended to eliminate waste and improve operations. savings from snap-ons rci initiatives reflect benefits from a wide variety of ongoing efficiency, productivity and process improvements, including savings generated from product design cost reductions, improved manufacturing line set-up and change-over practices, lower-cost sourcing initiatives and facility consolidations. unless individually significant, it is not practicable to disclose each rci activity that generated savings and/or segregate rci savings embedded in sales volume increases.
2016 annual report   27
managements discussion and analysis of financial condition and results of operations (continued)
operating earnings of $854.2 million in 2016 increased $89.4 million, or 11.7%, from $764.8 million last year. in 2016, net earnings attributable to snap-on incorporated were $546.4 million or $9.20 per diluted share. net earnings attributable to snap-on incorporated in 2015 were $478.7 million or $8.10 per diluted share.
the commercial & industrial group consists of business operations serving a broad range of industrial and commercial customers worldwide, including customers in the aerospace, natural resources, government, power generation, transportation and technical education market segments (collectively, critical industries), primarily through direct and distributor channels. segment net sales of $1,148.3 million in 2016 decreased $15.3 million, or 1.3%, from 2015 levels, reflecting $20.6 million of unfavorable foreign currency translation partially offset by $4.2 million of acquisition-related sales and a $1.1 million, or 0.1%, organic sales gain. the organic sales increase primarily includes higher sales in the segments european-based hand tools business and in its asia/pacific and power tools operations, largely offset by lower sales to customers in critical industries, primarily in the international aerospace and natural resources market segments. operating earnings of $168.0 million in 2016 decreased $1.4 million, or 0.8%, from 2015 levels, including $1.1 million of unfavorable foreign currency effects.
the commercial & industrial group intends to continue building on the following strategic priorities in 2017:
   continuing to invest in emerging market growth initiatives;

   expanding our business with existing customers and reaching new customers in critical industries and other market segments;

   broadening our product offering and engineered solutions designed particularly for critical industry segments;

   increasing our customer-connection-driven understanding of work across multiple industries;

   investing in innovation that, guided by that understanding of work, delivers an ongoing stream of productivity-enhancing solutions; and

   continuing to reduce structural and operating costs through rci initiatives.

the snap-on tools group consists of business operations primarily serving vehicle service and repair technicians through the companys worldwide mobile tool distribution channel. segment net sales of $1,633.9 million in 2016 increased $65.2 million, or 4.2%, from 2015 levels, reflecting an $86.4 million, or 5.6%, organic sales gain partially offset by $21.2 million of unfavorable foreign currency translation. the organic sales increase includes higher sales in both the companys u.s. and international franchise operations. operating earnings of $281.1 million in 2016 increased $25.1 million, or 9.8%, from 2015 levels, primarily as a result of higher sales and savings from rci initiatives, partially offset by $15.3 million of unfavorable foreign currency effects.
the snap-on tools group made continued progress in 2016 on its fundamental, strategic initiatives to strengthen the franchise network and enhance franchisee profitability. in 2017, the snap-on tools group intends to further build on the progress made in 2016, with specific initiatives focused on the following:
   continuing to improve franchisee satisfaction, productivity, profitability and commercial health;

   developing new programs and products to expand market coverage, reaching new technicians and increasing penetration with existing customers;

   continuing to invest in new product innovation and development; and

   increasing operational flexibility in back office support functions, manufacturing and the supply chain through rci initiatives and investment.

by focusing on these areas, we believe that snap-on, as well as its franchisees, will have the opportunity to continue to serve customers more effectively, more profitably and with improved satisfaction.
the repair systems & information group consists of business operations serving other professional vehicle repair customers worldwide, primarily owners and managers of independent repair shops and oem dealership service and repair shops (oem dealerships), through direct and distributor channels. segment net sales of $1,179.9 million in 2016 increased $66.7 million, or 6.0%, from 2015 levels, reflecting a $52.1 million, or 4.7%, organic sales gain and $28.7 million of acquisition-related sales, partially offset by $14.1 million of unfavorable foreign currency translation. the organic sales increase primarily reflects higher sales to independent repair shop owners and managers, as well as increased sales to oem dealerships, including higher sales of diagnostic and repair information products, and increased sales of undercar equipment. operating earnings of $297.8 million in 2016 increased $24.4 million, or 8.9%, from 2015 levels, primarily due to higher sales, including acquisition-related sales, and savings from rci initiatives, partially offset by $5.1 million of unfavorable foreign currency effects.
28   snap-on incorporated the repair systems & information group intends to focus on the following strategic priorities in 2017:
   expanding the product offering with new products and services, thereby providing more to sell to repair shop owners and managers;

   continuing software and hardware upgrades to further improve functionality, performance and efficiency;

   leveraging integration of software solutions;

   continuing productivity advancements through rci initiatives and leveraging of resources; and

   increasing penetration in geographic markets, including emerging markets.

financial services revenue was $281.4 million in 2016 and $240.3 million in 2015; originations of $1,075.7 million in 2016 increased $82.0 million, or 8.3%, from 2015 levels. in recent years, snap-on has steadily grown its financial services portfolio by providing financing for new finance and contract receivables originated by our global financial services operations. in 2016, operating earnings from financial services of $198.7 million increased $28.5 million, or 16.7%, from $170.2 million last year, including $1.8 million of unfavorable foreign currency effects.
financial services intends to focus on the following strategic priorities in 2017:
   delivering financial products and services that attract and sustain profitable franchisees and support snap-ons strategies for expanding market coverage and penetration;

   improving productivity levels and ensuring high quality in all financial products and processes through the use of rci initiatives; and

   maintaining healthy portfolio performance levels.

cash flows net cash provided by operating activities of $576.1 million in 2016 increased $68.9 million from $507.2 million in 2015 primarily due to $69.0 million of higher net earnings. net cash provided by operating activities was $403.1 million in 2014.
net cash used by investing activities of $473.4 million in 2016 included additions to finance receivables of $915.0 million, partially offset by collections of $671.7 million. it also included, on a preliminary basis, a total of $160.4 million (net of $4.3 million of cash acquired) for the acquisitions of car-o-liner and sturtevant richmont. net cash used by investing activities of $306.4 million in 2015 included additions to finance receivables of $844.2 million, partially offset by collections of $624.8 million, as well as $11.8 million for the acquisition of ecotechnics. net cash used by investing activities of $273.2 million in 2014 included additions to finance receivables of $746.2 million, partially offset by collections of $591.4 million, as well as $41.3 million for the acquisition of pro-cut. capital expenditures in 2016, 2015 and 2014 totaled $74.3 million, $80.4 million and $80.6 million, respectively. capital expenditures in all three years included investments to support the companys execution of its strategic growth initiatives and value creation processes around safety, quality, customer connection, innovation and rci.
net cash used by financing activities of $116.0 million in 2016 included $147.5 million for dividend payments to shareholders and $120.4 million for the repurchase of 758,000 shares of snap-ons common stock, partially offset by $134.2 million of proceeds from a net increase in notes payable and other short-term borrowings and $41.8 million of proceeds from stock purchase and option plan exercises. net cash used by financing activities of $236.7 million in 2015 included $127.9 million for dividend payments to shareholders, $110.4 million for the repurchase of 723,000 shares of snap-ons common stock and $34.0 million from a net decrease in notes payable and other short-term borrowings, partially offset by $41.6 million of proceeds from stock purchase and option plan exercises. net cash used by financing activities of $212.1 million in 2014 included the repayment of $100 million of unsecured notes at maturity. net cash used by financing activities in 2014 also included $107.6 million for dividend payments to shareholders and $79.3 million for the repurchase of 680,000 shares of snap-ons common stock, partially offset by $45.0 million of proceeds from a net increase in notes payable and other short-term borrowings and $33.0 million of proceeds from stock purchase and option plan exercises.
2016 annual report   29
managements discussion and analysis of financial condition and results of operations (continued)
fiscal year snap-ons fiscal year ends on the saturday that is on or nearest to december 31. unless otherwise indicated, references in this managements discussion and analysis of financial condition and results of operations to fiscal 2016 or 2016 refer to the fiscal year ended december 31, 2016; references to fiscal 2015 or 2015 refer to the fiscal year ended january 2, 2016; and references to fiscal 2014 or 2014 refer to the fiscal year ended january 3, 2015. references in this document to 2016, 2015 and 2014 year end refer to december 31, 2016, january 2, 2016, and january 3, 2015, respectively.
snap-ons 2016 and 2015 fiscal years each contained 52 weeks of operating results. snap-ons 2014 fiscal year contained 53 weeks of operating results; the impact of the additional week of operations was not material to snap-ons full year 2014 net sales or net earnings.
results of operations
2016 vs. 2015
results of operations for 2016 and 2015 are as follows:
(amounts in millions)                                   2016                                    2015                                                              change net sales                                                          $3,430.4            100.0%              $3,352.8            100.0%         $77.6                 2.3%
cost of goods sold                                                (1,720.8)            -50.2%             (1,704.5)            -50.8%        (16.3)                -1.0%
gross profit                                                        1,709.6             49.8%               1,648.3             49.2%          61.3                 3.7%
operating expenses                                                (1,054.1)            -30.7%             (1,053.7)            -31.5%         (0.4)                    
operating earnings before financial services                          655.5             19.1%                 594.6             17.7%          60.9                10.2%
financial services revenue                                            281.4            100.0%                 240.3            100.0%          41.1                17.1%
financial services expenses                                          (82.7)            -29.4%                (70.1)            -29.2%        (12.6)               -18.0%
operating earnings from financial services                            198.7             70.6%                 170.2             70.8%          28.5                16.7%
operating earnings                                                    854.2             23.0%                 764.8             21.3%          89.4                11.7%
interest expense                                                     (52.2)             -1.4%                (51.9)             -1.4%         (0.3)                -0.6%
other income (expense)  net                                          (0.6)                                  (2.4)             -0.1%           1.8                   nm earnings before income taxes and equity earnings                      801.4             21.6%                 710.5             19.8%          90.9                12.8%
income tax expense                                                  (244.3)             -6.6%               (221.2)             -6.2%        (23.1)               -10.4%
earnings before equity earnings                                       557.1             15.0%                 489.3             13.6%          67.8                13.9%
equity earnings, net of tax                                             2.5              0.1%                   1.3                            1.2                   nm net earnings                                                          559.6             15.1%                 490.6             13.6%          69.0                14.1%
net earnings attributable to noncontrolling interests                (13.2)             -0.4%                (11.9)             -0.3%         (1.3)               -10.9%
net earnings attributable to snap-on inc.                            $546.4             14.7%                $478.7             13.3%         $67.7                14.1%
nm: not meaningful percentage disclosure: all income statement line item percentages below operating earnings from financial services are calculated as a percentage of the sum of net sales and financial services revenue.
net sales of $3,430.4 million in 2016 increased $77.6 million, or 2.3%, from 2015 levels, reflecting a $96.2 million, or 2.9%, organic sales gain and $32.9 million of acquisition-related sales, partially offset by $51.5 million of unfavorable foreign currency translation.
30   snap-on incorporated gross profit of $1,709.6 million in 2016 compared to $1,648.3 million last year. gross margin (gross profit as a percentage of net sales) of 49.8% in 2016 improved 60 basis points (100 basis points (bps) equals 1.0 percent) from 49.2% last year as benefits from higher sales and savings from rci initiatives were partially offset by 20 bps of unfavorable foreign currency effects. restructuring costs included in gross profit were $0.8 million and zero in 2016 and 2015, respectively.
operating expenses of $1,054.1 million in 2016 compared to $1,053.7 million last year. the operating expense margin (operating expenses as a percentage of net sales) of 30.7% in 2016 improved 80 bps from 31.5% last year primarily due to sales volume leverage and savings from rci initiatives, 30 bps of lower stock-based (mark-to-market) compensation and other expenses, including lower costs associated with the companys employee and franchisee stock purchase plans, and 20 bps of lower pension expense. restructuring costs included in operating expenses were $0.1 million and zero in 2016 and 2015, respectively.
operating earnings before financial services of $655.5 million in 2016, including $21.5 million of unfavorable foreign currency effects, increased $60.9 million, or 10.2%, as compared to $594.6 million last year. as a percentage of net sales, operating earnings before financial services of 19.1% in 2016 improved 140 bps from 17.7% last year.
financial services revenue of $281.4 million in 2016 compared to revenue of $240.3 million last year. financial services operating earnings of $198.7 million in 2016, including $1.8 million of unfavorable foreign currency effects, increased $28.5 million, or 16.7%, as compared to $170.2 million last year. the year-over-year increases in both revenue and operating earnings primarily reflect continued growth of the companys financial services portfolio.
operating earnings of $854.2 million in 2016, including $23.3 million of unfavorable foreign currency effects, increased $89.4 million, or 11.7%, from $764.8 million last year. as a percentage of revenues (net sales plus financial services revenue), operating earnings of 23.0% in 2016 improved 170 bps from 21.3% last year.
interest expense of $52.2 million in 2016 increased $0.3 million from $51.9 million last year. see note 9 to the consolidated financial statements for information on snap-ons debt and credit facilities.
other income (expense)  net was expense of $0.6 million and $2.4 million in 2016 and 2015, respectively. other income (expense)  net reflects net losses and gains associated with hedging and currency exchange rate transactions, and interest income. see note 16 to the consolidated financial statements for information on other income (expense)  net.
snap-ons effective income tax rate on earnings attributable to snap-on was 31.0% in 2016 and 31.7% in 2015. see note 8 to the consolidated financial statements for information on income taxes.
net earnings attributable to snap-on of $546.4 million, or $9.20 per diluted share, in 2016 increased $67.7 million, or $1.10 per diluted share, from 2015 levels. net earnings attributable to snap-on in 2015 were $478.7 million or $8.10 per diluted share.
exit and disposal activities in 2016, the companys repair systems & information group recorded $0.9 million of severance costs for exit and disposal activities, all of which qualified for accrual treatment; no costs for exit and disposal activities were recorded in 2015. the exit and disposal accrual of $2.8 million as of 2016 year end is expected to be fully utilized in 2017. snap-on anticipates funding the remaining cash requirements of its exit and disposal activities with available cash on hand, cash flows from operations and borrowings under the companys existing credit facilities. the estimated costs for the exit and disposal activities were based on managements best business judgment under prevailing circumstances.
segment results snap-ons business segments are based on the organization structure used by management for making operating and investment decisions and for assessing performance. snap-ons reportable business segments are: (i) the commercial & industrial group; (ii) the snap-on tools group; (iii) the repair systems & information group; and (iv) financial services. the commercial & industrial group consists of business operations serving a broad range of industrial and commercial customers worldwide, including customers in the aerospace, natural resources, government, power generation, transportation and technical education market segments (collectively, critical industries), primarily through direct and distributor channels. the snap-on tools group consists of business operations primarily serving vehicle service and repair technicians through the companys worldwide mobile tool distribution channel. the repair systems & information group consists of business operations serving other professional vehicle repair customers worldwide, primarily owners and managers of independent repair shops and oem dealerships, through direct and distributor channels. financial services consists of the business operations of snap-ons finance subsidiaries.
2016 annual report   31
managements discussion and analysis of financial condition and results of operations (continued)
snap-on evaluates the performance of its operating segments based on segment revenues, including both external and intersegment net sales, and segment operating earnings. snap-on accounts for intersegment sales and transfers based primarily on standard costs with reasonable mark-ups established between the segments. identifiable assets by segment are those assets used in the respective reportable segments operations. corporate assets consist of cash and cash equivalents (excluding cash held at financial services), deferred income taxes and certain other assets. all significant intersegment amounts are eliminated to arrive at snap-ons consolidated financial results.
commercial & industrial group
(amounts in millions)        2016                                 2015                                 change external net sales                     $863.0             75.2%             $895.5             77.0%   $(32.5)                    -3.6%
intersegment net sales                  285.3             24.8%              268.1             23.0%   17.2                        6.4%
segment net sales                     1,148.3            100.0%            1,163.6            100.0%         (15.3)               -1.3%
cost of goods sold                    (698.3)            -60.8%            (717.1)            -61.6%   18.8                        2.6%
gross profit                            450.0             39.2%              446.5             38.4%   3.5                         0.8%
operating expenses                    (282.0)            -24.6%            (277.1)            -23.8%          (4.9)               -1.8%
segment operating earnings             $168.0             14.6%             $169.4             14.6%   $(1.4)                     -0.8%
segment net sales of $1,148.3 million in 2016 decreased $15.3 million, or 1.3%, from 2015 levels, reflecting $20.6 million of unfavorable foreign currency translation partially offset by $4.2 million of acquisition-related sales and a $1.1 million, or 0.1%, organic sales gain. the organic sales increase primarily includes a mid single-digit gain in the segments european-based hand tools business and low single-digit increases in both the segments asia/pacific and power tools operations. these organic sales gains were largely offset by a mid single-digit decline in sales to customers in critical industries, primarily in the international aerospace and natural resources market segments.
segment gross profit of $450.0 million in 2016 compared to $446.5 million last year. gross margin of 39.2% in 2016 improved 80 bps from 38.4% last year primarily due to savings from rci and other cost reduction initiatives, and 20 bps of favorable foreign currency effects.
segment operating expenses of $282.0 million in 2016 compared to $277.1 million last year. the operating expense margin of 24.6% in 2016 increased 80 bps from 23.8% last year primarily due to higher costs, including costs associated with continued expansion initiatives in asia, a 20 bps benefit realized in 2015 from a gain on the sale of a former manufacturing facility, and 10 bps of unfavorable foreign currency effects.
as a result of these factors, segment operating earnings of $168.0 million in 2016, including $1.1 million of unfavorable foreign currency effects, decreased $1.4 million from 2015 levels. operating margin (segment operating earnings as a percentage of segment net sales) for the commercial & industrial group was 14.6% in both years.
snap-on tools group
(amounts in millions)        2016                                  2015                                                           change segment net sales                     $1,633.9            100.0%            $1,568.7            100.0%         $65.2                4.2%
cost of goods sold                     (929.8)            -56.9%             (885.7)            -56.5%        (44.1)               -5.0%
gross profit                             704.1             43.1%               683.0             43.5%          21.1                3.1%
operating expenses                     (423.0)            -25.9%             (427.0)            -27.2%           4.0                0.9%
segment operating earnings              $281.1             17.2%              $256.0             16.3%         $25.1                9.8%
32   snap-on incorporated segment net sales of $1,633.9 million in 2016 increased $65.2 million, or 4.2%, from 2015 levels, reflecting an $86.4 million, or 5.6%, organic sales gain partially offset by $21.2 million of unfavorable foreign currency translation. the organic sales increase includes mid single-digit gains in both the companys u.s. and international franchise operations.
segment gross profit of $704.1 million in 2016 compared to $683.0 million last year. gross margin of 43.1% in 2016 declined 40 bps from 43.5% last year as 70 bps of unfavorable foreign currency effects were partially offset by benefits from higher sales.
segment operating expenses of $423.0 million in 2016 compared to $427.0 million last year. the operating expense margin of 25.9% in 2016 improved 130 bps from 27.2% last year primarily due to sales volume leverage and savings from rci and other cost reduction initiatives, as well as 20 bps of lower stock-based costs associated with the companys franchisee stock purchase plan.
as a result of these factors, segment operating earnings of $281.1 million in 2016, including $15.3 million of unfavorable foreign currency effects, increased $25.1 million from 2015 levels. operating margin for the snap-on tools group of 17.2% in 2016 improved 90 bps from 16.3% last year.
repair systems & information group
(amounts in millions)        2016                                 2015                                                          change external net sales                     $933.5             79.1%             $888.6             79.8%         $44.9                5.1%
intersegment net sales                  246.4             20.9%              224.6             20.2%          21.8                9.7%
segment net sales                     1,179.9            100.0%            1,113.2            100.0%          66.7                6.0%
cost of goods sold                    (624.4)            -52.9%            (594.4)            -53.4%        (30.0)               -5.0%
gross profit                            555.5             47.1%              518.8             46.6%          36.7                7.1%
operating expenses                    (257.7)            -21.9%            (245.4)            -22.0%        (12.3)               -5.0%
segment operating earnings             $297.8             25.2%             $273.4             24.6%         $24.4                8.9%
segment net sales of $1,179.9 million in 2016 increased $66.7 million, or 6.0%, from 2015 levels, reflecting a $52.1 million, or 4.7%, organic sales gain and $28.7 million of acquisition-related sales, partially offset by $14.1 million of unfavorable foreign currency translation. the organic sales increase includes a high single-digit gain in sales of diagnostic and repair information products to independent repair shop owners and managers, and low single-digit increases in both sales of undercar equipment and sales to oem dealerships.
segment gross profit of $555.5 million in 2016 compared to $518.8 million last year. gross margin of 47.1% in 2016 improved 50 bps from 46.6% last year, as benefits from higher sales and savings from rci initiatives were partially offset by 10 bps of unfavorable currency effects. restructuring costs included in gross profit were $0.8 million and zero in 2016 and 2015, respectively.
segment operating expenses of $257.7 million in 2016 compared to $245.4 million last year. the operating expense margin of 21.9% in 2016 improved 10 bps from 22.0% last year primarily due to sales volume leverage and savings from rci initiatives, partially offset by 20 bps of impact from the car-o-liner acquisition. restructuring costs included in operating expenses were $0.1 million and zero in 2016 and 2015, respectively.
as a result of these factors, segment operating earnings of $297.8 million in 2016, including $5.1 million of unfavorable foreign currency effects, increased $24.4 million from 2015 levels. operating margin for the repair systems & information group of 25.2% in 2016 improved 60 bps from 24.6% last year.
financial services
(amounts in millions)         2016                                2015                                                          change financial services revenue             $281.4            100.0%            $240.3            100.0%         $41.1                17.1%
financial services expenses            (82.7)            -29.4%            (70.1)            -29.2%        (12.6)               -18.0%
segment operating earnings             $198.7             70.6%            $170.2             70.8%         $28.5                16.7%
2016 annual report   33
managements discussion and analysis of financial condition and results of operations (continued)
financial services revenue of $281.4 million in 2016 increased $41.1 million, or 17.1%, from $240.3 million last year primarily reflecting $38.1 million of higher revenue as a result of continued growth of the companys financial services portfolio and $2.7 million of increased revenue from higher average yields on finance receivables. in 2016 and 2015, the respective average yield on finance receivables was 18.0% and 17.8%, and the respective average yield on contract receivables was 9.4% and 9.5%. originations of $1,075.7 million in 2016 increased $82.0 million, or 8.3%, from 2015 levels.
financial services expenses primarily include personnel-related and other general and administrative costs, as well as provisions for credit losses. these expenses are generally more dependent on changes in the financial services portfolio than they are on the revenue of the segment. financial services expenses of $82.7 million in 2016 increased from $70.1 million last year primarily due to changes in both the size of the portfolio and in the provisions for credit losses. as a percentage of the average financial services portfolio, financial services expenses were 4.9% and 4.8% in 2016 and 2015, respectively.
financial services operating earnings of $198.7 million in 2016, including $1.8 million of unfavorable foreign currency effects, increased $28.5 million, or 16.7%, from 2015 levels.
see note 1 and note 3 to the consolidated financial statements for further information on financial services.
corporate snap-ons general corporate expenses in 2016 of $91.4 million decreased $12.8 million from $104.2 million last year. the year-over-year decrease in general corporate expenses primarily reflects $6.9 million of lower pension expense, $6.4 million of lower stock-based (mark-to-market) compensation expense and $2.3 million of lower stock-based costs associated with the companys employee stock purchase plan, partially offset by $2.8 million of higher acquisition-related and other costs.
fourth quarter results of operations for the fourth quarters of 2016 and 2015 are as follows:
fourth quarter                             change
(amounts in millions)                                   2016                                        2015
net sales                                                         $889.8               100.0%                  $851.7               100.0%         $38.1                 4.5%
cost of goods sold                                               (445.9)               -50.1%                 (439.4)               -51.6%         (6.5)                -1.5%
gross profit                                                       443.9                49.9%                   412.3                48.4%          31.6                 7.7%
operating expenses                                               (267.8)               -30.1%                 (250.0)               -29.3%        (17.8)                -7.1%
operating earnings before financial services                       176.1                19.8%                   162.3                19.1%          13.8                 8.5%
financial services revenue                                          74.2               100.0%                    63.1               100.0%          11.1                17.6%
financial services expenses                                       (22.6)               -30.5%                  (18.1)               -28.7%         (4.5)               -24.9%
operating earnings from financial services                          51.6                69.5%                    45.0                71.3%           6.6                14.7%
operating earnings                                                 227.7                23.6%                   207.3                22.7%          20.4                 9.8%
interest expense                                                  (13.1)                -1.4%                  (13.0)                -1.4%         (0.1)                -0.8%
other income (expense)  net                                       (0.3)                                       (0.5)                -0.1%           0.2                   nm earnings before income taxes and equity earnings                   214.3                22.2%                   193.8                21.2%          20.5                10.6%
income tax expense                                                (64.9)                -6.7%                  (59.3)                -6.5%         (5.6)                -9.4%
earnings before equity earnings                                    149.4                15.5%                   134.5                14.7%          14.9                11.1%
equity earnings, net of tax                                          0.3                                                                          0.3                   nm net earnings                                                       149.7                15.5%                   134.5                14.7%          15.2                11.3%
net earnings attributable to noncontrolling interests              (3.4)                -0.3%                   (3.1)                -0.3%         (0.3)                -9.7%
net earnings attributable to snap-on inc.                         $146.3                15.2%                  $131.4                14.4%         $14.9                11.3%
nm: not meaningful percentage disclosure: all income statement line item percentages below operating earnings from financial services are calculated as a percentage of the sum of net sales and financial services revenue.
34   snap-on incorporated net sales of $889.8 million in the fourth quarter of 2016 increased $38.1 million, or 4.5%, from 2015 levels, reflecting a $30.0 million, or 3.6%, organic sales gain and $23.3 million of acquisition-related sales, partially offset by $15.2 million of unfavorable foreign currency translation.
gross profit of $443.9 million in the fourth quarter of 2016 compared to $412.3 million last year. gross margin of 49.9% in the quarter improved 150 bps from 48.4% last year primarily due to benefits from higher sales and savings from rci initiatives.
operating expenses of $267.8 million in the fourth quarter of 2016 compared to $250.0 million last year. the operating expense margin of 30.1% in the quarter increased 80 bps from 29.3% last year primarily due to 60 bps of higher acquisition-related and other expenses, including operating expenses for car-o-liner and sturtevant richmont, and a 30 bps benefit realized in the fourth quarter of 2015 primarily from a gain on the sale of a former manufacturing facility, partially offset by 20 bps of lower pension expense.
operating earnings before financial services of $176.1 million in the fourth quarter of 2016, including $3.7 million of unfavorable foreign currency effects, increased $13.8 million, or 8.5%, as compared to $162.3 million last year. as a percentage of net sales, operating earnings before financial services of 19.8% in the quarter improved 70 bps from 19.1% last year.
financial services revenue of $74.2 million in the fourth quarter of 2016 compared to revenue of $63.1 million last year. financial services operating earnings of $51.6 million in the fourth quarter of 2016, including $0.6 million of unfavorable foreign currency effects, increased $6.6 million, or 14.7%, as compared to $45.0 million last year. the year-over-year increases in both revenue and operating earnings primarily reflect continued growth of the companys financial services portfolio.
operating earnings of $227.7 million in the fourth quarter of 2016, including $4.3 million of unfavorable foreign currency effects, increased $20.4 million, or 9.8%, from $207.3 million last year. as a percentage of revenues, operating earnings of 23.6% in the quarter improved 90 bps from 22.7% last year.
interest expense of $13.1 million in the fourth quarter of 2016 increased $0.1 million from $13.0 million last year. see note 9 to the consolidated financial statements for information on snap-ons debt and credit facilities.
other income (expense)  net was expense of $0.3 million and $0.5 million in the respective fourth quarters of 2016 and 2015. see note 16 to the consolidated financial statements for information on other income (expense)  net.
snap-ons fourth quarter effective income tax rate on earnings attributable to snap-on was 30.8% in 2016 and 31.1% in 2015. see note 8 to the consolidated financial statements for information on income taxes.
net earnings attributable to snap-on of $146.3 million, or $2.47 per diluted share, in the fourth quarter of 2016 increased $14.9 million, or $0.25 per diluted share, from 2015 levels. net earnings attributable to snap-on in the fourth quarter of 2015 were $131.4 million or $2.22 per diluted share.
segment results commercial & industrial group fourth quarter
(amounts in millions)        2016                                        2015                                                             change external net sales                     $218.5                76.3%                  $212.0                75.2%         $6.5                3.1%
intersegment net sales                   67.8                23.7%                    69.8                24.8%        (2.0)               -2.9%
segment net sales                       286.3               100.0%                   281.8               100.0%          4.5                1.6%
cost of goods sold                    (170.9)               -59.7%                 (174.2)               -61.8%          3.3                1.9%
gross profit                            115.4                40.3%                   107.6                38.2%          7.8                7.2%
operating expenses                     (71.5)               -25.0%                  (65.7)               -23.3%        (5.8)               -8.8%
segment operating earnings              $43.9                15.3%                   $41.9                14.9%         $2.0                4.8%
2016 annual report   35
managements discussion and analysis of financial condition and results of operations (continued)
segment net sales of $286.3 million in the fourth quarter of 2016 increased $4.5 million, or 1.6%, from 2015 levels, reflecting a $6.5 million, or 2.4%, organic sales gain and $4.2 million of acquisition-related sales, partially offset by $6.2 million of unfavorable foreign currency translation. the organic sales increase primarily includes a high single-digit gain in the segments european-based hand tools business and a low single-digit increase to customers in critical industries, largely as a result of higher sales to the military. these organic sales gains were partially offset by a mid single-digit decline in the segments power tools operations and a low single-digit decline in the segments asia/pacific operations.
segment gross profit of $115.4 million in the fourth quarter of 2016 compared to $107.6 million last year. gross margin of 40.3% in the quarter improved 210 bps from 38.2% last year primarily due to benefits from higher sales and savings from rci initiatives, and 100 bps of favorable foreign currency effects.
segment operating expenses of $71.5 million in the fourth quarter of 2016 compared to $65.7 million last year. the operating expense margin of 25.0% in the quarter increased 170 bps from 23.3% last year primarily due to higher costs, including operating expenses for car-o-liner and sturtevant richmont, a 70 bps benefit realized in the fourth quarter of 2015 from a gain on the sale of a former manufacturing facility, and 10 bps of unfavorable foreign currency effects.
as a result of these factors, segment operating earnings of $43.9 million in the fourth quarter of 2016, including $1.8 million of favorable foreign currency effects, increased $2.0 million from 2015 levels. operating margin for the commercial & industrial group of 15.3% in the fourth quarter of 2016 improved 40 bps from 14.9% last year.
snap-on tools group fourth quarter
(amounts in millions)        2016                                        2015                                                             change segment net sales                      $417.5               100.0%                  $411.2               100.0%         $6.3                1.5%
cost of goods sold                    (242.0)               -58.0%                 (237.5)               -57.8%        (4.5)               -1.9%
gross profit                            175.5                42.0%                   173.7                42.2%          1.8                1.0%
operating expenses                    (102.0)               -24.4%                 (101.8)               -24.7%        (0.2)               -0.2%
segment operating earnings              $73.5                17.6%                   $71.9                17.5%         $1.6                2.2%
segment net sales of $417.5 million in the fourth quarter of 2016 increased $6.3 million, or 1.5%, from 2015 levels, reflecting a $12.2 million, or 3.0%, organic sales gain partially offset by $5.9 million of unfavorable foreign currency translation. the organic sales increase includes a low single-digit gain in the companys u.s. franchise operations and a mid single-digit gain in the companys international franchise operations.
segment gross profit of $175.5 million in the fourth quarter of 2016 compared to $173.7 million last year. gross margin of 42.0% in the quarter declined 20 bps from 42.2% last year as 60 bps of unfavorable foreign currency effects were partially offset by benefits from higher sales.
segment operating expenses of $102.0 million in the fourth quarter of 2016 compared to $101.8 million last year. the operating expense margin of 24.4% in the quarter improved 30 bps from 24.7% last year primarily due to sales volume leverage.
as a result of these factors, segment operating earnings of $73.5 million in the fourth quarter of 2016, including $3.8 million of unfavorable foreign currency effects, increased $1.6 million from 2015 levels. operating margin for the snap-on tools group of 17.6% in the fourth quarter of 2016 improved 10 bps from 17.5% last year.
36   snap-on incorporated repair systems & information group fourth quarter
(amounts in millions)        2016                                        2015                                                               change external net sales                     $253.8                79.4%                  $228.5                81.4%         $25.3                11.1%
intersegment net sales                   66.0                20.6%                    52.1                18.6%          13.9                26.7%
segment net sales                       319.8               100.0%                   280.6               100.0%          39.2                14.0%
cost of goods sold                    (166.8)               -52.2%                 (149.6)               -53.3%        (17.2)               -11.5%
gross profit                            153.0                47.8%                   131.0                46.7%          22.0                16.8%
operating expenses                     (70.5)               -22.0%                  (58.9)               -21.0%        (11.6)               -19.7%
segment operating earnings              $82.5                25.8%                   $72.1                25.7%         $10.4                14.4%
segment net sales of $319.8 million in the fourth quarter of 2016 increased $39.2 million, or 14.0%, from 2015 levels, reflecting a $24.6 million, or 8.9%, organic sales gain and $19.1 million of acquisition-related sales, partially offset by $4.5 million of unfavorable foreign currency translation. the organic sales increase includes a double-digit gain in sales of diagnostic and repair information products to independent repair shop owners and managers, a mid single-digit increase in sales to oem dealerships and a low single-digit gain in sales of undercar equipment.
segment gross profit of $153.0 million in the fourth quarter of 2016 compared to $131.0 million last year. gross margin of 47.8% in the quarter improved 110 bps from 46.7% last year primarily due to benefits from higher sales and savings from rci initiatives.
segment operating expenses of $70.5 million in the fourth quarter of 2016 compared to $58.9 million last year. the operating expense margin of 22.0% increased 100 bps from 21.0% last year primarily due to 90 bps of impact from the car-o-liner acquisition.
as a result of these factors, segment operating earnings of $82.5 million in the fourth quarter of 2016, including $1.7 million of unfavorable foreign currency effects, increased $10.4 million from 2015 levels. operating margin for the repair systems & information group of 25.8% in the fourth quarter of 2016 improved 10 bps from 25.7% last year.
financial services fourth quarter
(amounts in millions)         2016                                      2015                                                            change financial services revenue             $74.2               100.0%                 $63.1               100.0%        $11.1                17.6%
financial services expenses           (22.6)               -30.5%                (18.1)               -28.7%        (4.5)               -24.9%
segment operating earnings             $51.6                69.5%                 $45.0                71.3%         $6.6                14.7%
financial services revenue of $74.2 million in the fourth quarter of 2016 increased $11.1 million, or 17.6%, from $63.1 million last year primarily reflecting $9.6 million of higher revenue as a result of continued growth of the companys financial services portfolio and $1.3 million of increased revenue from higher average yields on finance receivables, partially offset by $0.1 million of lower revenue from lower average yields on contract receivables. in the fourth quarters of 2016 and 2015, the respective average yield on finance receivables was 18.2% and 17.8%, and the respective average yield on contract receivables was 9.3% and 9.5%. originations of $260.3 million in the fourth quarter of 2016 increased $8.3 million, or 3.3%, from 2015 levels.
financial services expenses primarily include personnel-related and other general and administrative costs, as well as provisions for credit losses. these expenses are generally more dependent on changes in the financial services portfolio than they are on the revenue of the segment. financial services expenses of $22.6 million in the fourth quarter of 2016 increased from $18.1 million last year primarily due to changes in both the size of the portfolio and in the provisions for credit losses. as a percentage of the average financial services portfolio, financial services expenses were 1.3% and 1.2% in the fourth quarters of 2016 and 2015, respectively.
2016 annual report   37
managements discussion and analysis of financial condition and results of operations (continued)
financial services operating earnings of $51.6 million in the fourth quarter of 2016, including $0.6 million of unfavorable foreign currency effects, increased $6.6 million, or 14.7%, from 2015 levels.
see note 1 and note 3 to the consolidated financial statements for further information on financial services.
corporate snap-ons fourth quarter 2016 general corporate expenses of $23.8 million increased $0.2 million from $23.6 million last year primarily due to higher acquisition-related and other costs partially offset by $1.6 million of lower pension expense.
2015 vs. 2014
results of operations for 2015 and 2014 are as follows:
(amounts in millions)                                   2015                                    2014                                                              change net sales                                                          $3,352.8            100.0%              $3,277.7            100.0%         $75.1                 2.3%
cost of goods sold                                                (1,704.5)            -50.8%             (1,693.4)            -51.7%        (11.1)                -0.7%
gross profit                                                        1,648.3             49.2%               1,584.3             48.3%          64.0                 4.0%
operating expenses                                                (1,053.7)            -31.5%             (1,048.7)            -32.0%         (5.0)                -0.5%
operating earnings before financial services                          594.6             17.7%                 535.6             16.3%          59.0                11.0%
financial services revenue                                            240.3            100.0%                 214.9            100.0%          25.4                11.8%
financial services expenses                                          (70.1)            -29.2%                (65.8)            -30.6%         (4.3)                -6.5%
operating earnings from financial services                            170.2             70.8%                 149.1             69.4%          21.1                14.2%
operating earnings                                                    764.8             21.3%                 684.7             19.6%          80.1                11.7%
interest expense                                                     (51.9)             -1.4%                (52.9)             -1.5%           1.0                 1.9%
other income (expense)  net                                          (2.4)             -0.1%                 (0.9)                          (1.5)                   nm earnings before income taxes and equity earnings                      710.5             19.8%                 630.9             18.1%          79.6                12.6%
income tax expense                                                  (221.2)             -6.2%               (199.5)             -5.7%        (21.7)               -10.9%
earnings before equity earnings                                       489.3             13.6%                 431.4             12.4%          57.9                13.4%
equity earnings, net of tax                                             1.3                                    0.7                            0.6                   nm net earnings                                                          490.6             13.6%                 432.1             12.4%          58.5                13.5%
net earnings attributable to noncontrolling interests                (11.9)             -0.3%                (10.2)             -0.3%         (1.7)               -16.7%
net earnings attributable to snap-on inc.                            $478.7             13.3%                $421.9             12.1%         $56.8                13.5%
nm: not meaningful percentage disclosure: all income statement line item percentages below operating earnings from financial services are calculated as a percentage of the sum of net sales and financial services revenue.
snap-ons 2015 fiscal year contained 52 weeks of operating results. snap-ons 2014 fiscal year contained 53 weeks of operating results. the impact of the additional week of operations in fiscal 2014 was not material to snap-ons full year 2014 net sales or net earnings.
net sales of $3,352.8 million in 2015 increased $75.1 million, or 2.3%, from 2014 levels, reflecting a $220.8 million, or 7.1%, organic sales gain and $12.0 million of acquisition-related sales, partially offset by $157.7 million of unfavorable foreign currency translation.
38   snap-on incorporated gross profit of $1,648.3 million in 2015 compared to $1,584.3 million in 2014. gross margin of 49.2% in 2015 improved 90 bps from 48.3% in 2014 primarily due to benefits from higher sales and savings from rci initiatives, as well as 20 bps of lower restructuring costs. restructuring costs included in gross profit were zero and $5.7 million in 2015 and 2014, respectively.
operating expenses of $1,053.7 million in 2015 compared to $1,048.7 million in 2014. the operating expense margin of 31.5% in 2015 improved 50 bps from 32.0% in 2014 primarily due to sales volume leverage and savings from rci initiatives, partially offset by 20 bps of higher pension expense. restructuring costs included in operating expenses were zero and $0.8 million in 2015 and 2014, respectively.
operating earnings before financial services of $594.6 million in 2015, including $39.5 million of unfavorable foreign currency effects, increased $59.0 million, or 11.0%, as compared to $535.6 million in 2014. as a percentage of net sales, operating earnings before financial services of 17.7% in 2015 improved 140 bps from 16.3% in 2014.
financial services revenue of $240.3 million in 2015 compared to revenue of $214.9 million in 2014. financial services operating earnings of $170.2 million in 2015, including $2.6 million of unfavorable foreign currency effects, increased $21.1 million, or 14.2%, as compared to $149.1 million in 2014. the year-over-year increases in both revenue and operating earnings primarily reflect continued growth of the companys financial services portfolio.
operating earnings of $764.8 million in 2015, including $42.1 million of unfavorable foreign currency effects, increased $80.1 million, or 11.7%, from $684.7 million in 2014. as a percentage of revenues, operating earnings of 21.3% in 2015 improved 170 bps from 19.6% in 2014.
interest expense of $51.9 million in 2015 decreased $1.0 million from $52.9 million in 2014. see note 9 to the consolidated financial statements for information on snap-ons debt and credit facilities.
other income (expense)  net was expense of $2.4 million and $0.9 million in 2015 and 2014, respectively. see note 16 to the consolidated financial statements for information on other income (expense)  net.
snap-ons effective income tax rate on earnings attributable to snap-on was 31.7% in 2015 and 32.1% in 2014. see note 8 to the consolidated financial statements for information on income taxes.
net earnings attributable to snap-on of $478.7 million, or $8.10 per diluted share, in 2015 increased $56.8 million, or $0.96 per diluted share, from 2014 levels. net earnings attributable to snap-on in 2014 were $421.9 million or $7.14 per diluted share.
exit and disposal activities snap-on did not record any costs for exit and disposal activities in 2015; snap-on recorded $6.5 million of costs for exit and disposal activities in 2014. see note 7 to the consolidated financial statements for information on snap-ons exit and disposal activities.
segment results commercial & industrial group
(amounts in millions)        2015                                 2014                                                           change external net sales                     $895.5             77.0%             $952.1             81.0%        $(56.6)               -5.9%
intersegment net sales                  268.1             23.0%              222.7             19.0%           45.4               20.4%
segment net sales                     1,163.6            100.0%            1,174.8            100.0%         (11.2)               -1.0%
cost of goods sold                    (717.1)            -61.6%            (725.1)            -61.7%            8.0                1.1%
gross profit                            446.5             38.4%              449.7             38.3%          (3.2)               -0.7%
operating expenses                    (277.1)            -23.8%            (291.1)            -24.8%           14.0                4.8%
segment operating earnings             $169.4             14.6%             $158.6             13.5%          $10.8                6.8%
2016 annual report   39
managements discussion and analysis of financial condition and results of operations (continued)
segment net sales of $1,163.6 million in 2015 decreased $11.2 million, or 1.0%, from 2014 levels, reflecting $75.3 million of unfavorable foreign currency translation partially offset by a $64.1 million, or 5.8%, organic sales gain. the organic sales increase primarily included a double-digit gain in the segments power tools operations and high single-digit increases from both the segments european-based hand tools business and asia/pacific operations; sales to customers in critical industries were essentially flat, as sales gains in several market segments were generally offset by lower sales to customers in the oil and gas sector of our natural resources market segment.
segment gross profit of $446.5 million in 2015 compared to $449.7 million in 2014. gross margin of 38.4% in 2015 improved 10 bps from 38.3% in 2014, as savings from rci initiatives were partially offset by a shift in sales that included higher volumes of lower gross margin products, including increased sales from the segments power tools and asia/pacific operations. restructuring costs included in gross profit were zero and $1.0 million in 2015 and 2014, respectively.
segment operating expenses of $277.1 million in 2015 compared to $291.1 million in 2014. the operating expense margin of 23.8% in 2015 improved 100 bps from 24.8% in 2014 primarily due to benefits from the sales shift noted above and a 20 bps gain from the sale of a former manufacturing facility. restructuring costs included in operating expenses were zero and $0.4 million in 2015 and 2014, respectively.
as a result of these factors, segment operating earnings of $169.4 million in 2015, including $7.7 million of unfavorable foreign currency effects, increased $10.8 million from 2014 levels. operating margin for the commercial & industrial group of 14.6% in 2015 improved 110 bps from 13.5% in 2014.
snap-on tools group
(amounts in millions)        2015                                  2014                                                            change segment net sales                     $1,568.7            100.0%            $1,455.2            100.0%         $113.5                7.8%
cost of goods sold                     (885.7)            -56.5%             (824.9)            -56.7%         (60.8)               -7.4%
gross profit                             683.0             43.5%               630.3             43.3%           52.7                8.4%
operating expenses                     (427.0)            -27.2%             (407.2)            -28.0%         (19.8)               -4.9%
segment operating earnings              $256.0             16.3%              $223.1             15.3%          $32.9               14.7%
segment net sales of $1,568.7 million in 2015 increased $113.5 million, or 7.8%, from 2014 levels, reflecting a $154.2 million, or 10.9%, organic sales gain partially offset by $40.7 million of unfavorable foreign currency translation. the organic sales increase included double-digit gains in both the companys u.s. and international franchise operations.
segment gross profit of $683.0 million in 2015 compared to $630.3 million in 2014. gross margin of 43.5% in 2015 improved 20 bps from 43.3% in 2014 primarily due to benefits from higher sales and savings from rci initiatives, partially offset by 90 bps of unfavorable foreign currency effects.
segment operating expenses of $427.0 million in 2015 compared to $407.2 million in 2014. the operating expense margin of 27.2% in 2015 improved 80 bps from 28.0% in 2014 primarily due to sales volume leverage.
as a result of these factors, segment operating earnings of $256.0 million in 2015, including $21.3 million of unfavorable foreign currency effects, increased $32.9 million from 2014 levels. operating margin for the snap-on tools group of 16.3% in 2015 improved 100 bps from 15.3% in 2014.
repair systems & information group
(amounts in millions)        2015                                 2014                                                         change external net sales                     $888.6             79.8%             $870.4             79.5%        $18.2                2.1%
intersegment net sales                  224.6             20.2%              224.8             20.5%        (0.2)               -0.1%
segment net sales                     1,113.2            100.0%            1,095.2            100.0%         18.0                1.6%
cost of goods sold                    (594.4)            -53.4%            (590.9)            -54.0%        (3.5)               -0.6%
gross profit                            518.8             46.6%              504.3             46.0%         14.5                2.9%
operating expenses                    (245.4)            -22.0%            (253.1)            -23.1%          7.7                3.0%
segment operating earnings             $273.4             24.6%             $251.2             22.9%        $22.2                8.8%
40   snap-on incorporated segment net sales of $1,113.2 million in 2015 increased $18.0 million, or 1.6%, from 2014 levels, reflecting a $51.8 million, or 4.9%, organic sales gain and $12.0 million of acquisition-related sales, partially offset by $45.8 million of unfavorable foreign currency translation. the organic sales increase primarily included mid single-digit gains in sales of undercar equipment, sales to oem dealerships, and sales of diagnostic and repair information products to independent repair shop owners and managers.
segment gross profit of $518.8 million in 2015 compared to $504.3 million in 2014. gross margin of 46.6% in 2015 improved 60 bps from 46.0% in 2014 primarily due to contributions from higher sales and savings from rci initiatives, and 40 bps of lower restructuring costs. these gross margin improvements were partially offset by a shift in sales that included higher volumes of lower gross margin products, including increased essential tool and facilitation sales to oem dealerships. restructuring costs included in gross profit were zero and $4.7 million in 2015 and 2014, respectively.
segment operating expenses of $245.4 million in 2015 compared to $253.1 million in 2014. the operating expense margin of 22.0% in 2015 improved 110 bps from 23.1% in 2014 primarily due to sales volume leverage, including benefits from the sales shift noted above, and savings from rci initiatives. restructuring costs included in operating expenses were zero and $0.4 million in 2015 and 2014, respectively.
as a result of these factors, segment operating earnings of $273.4 million in 2015, including $10.5 million of unfavorable foreign currency effects, increased $22.2 million from 2014 levels. operating margin for the repair systems & information group of 24.6% in 2015 improved 170 bps from 22.9% in 2014.
financial services
(amounts in millions)         2015                                2014                                                        change financial services revenue             $240.3            100.0%            $214.9            100.0%        $25.4               11.8%
financial services expenses            (70.1)            -29.2%            (65.8)            -30.6%        (4.3)               -6.5%
segment operating earnings             $170.2             70.8%            $149.1             69.4%        $21.1               14.2%
financial services revenue of $240.3 million in 2015 increased $25.4 million, or 11.8%, from $214.9 million in 2014 primarily reflecting $23.0 million of higher revenue as a result of continued growth of the companys financial services portfolio and $2.2 million of increased revenue from higher average yields on finance receivables. in 2015 and 2014, the average yield on finance receivables was 17.8% and 17.6%, respectively, and the average yield on contract receivables was 9.5% in both years. originations of $993.7 million in 2015 increased $105.1 million, or 11.8%, from 2014 levels.
financial services expenses of $70.1 million in 2015 compared to $65.8 million in 2014. as a percentage of the average financial services portfolio, financial services expenses were 4.8% and 5.1% in 2015 and 2014, respectively.
financial services operating earnings of $170.2 million in 2015, including $2.6 million of unfavorable foreign currency effects, increased $21.1 million, or 14.2%, from 2014 levels.
see note 1 to the consolidated financial statements for further information on financial services.
corporate snap-ons general corporate expenses in 2015 of $104.2 million increased $6.9 million from $97.3 million in 2014 primarily due to $7.9 million of higher pension expense.
non-gaap supplemental data the following non-gaap supplemental data is presented for informational purposes to provide readers with insight into the information used by management for assessing the operating performance of snap-on incorporateds (snap-on) non-financial services (operations) and financial services businesses.
2016 annual report   41
managements discussion and analysis of financial condition and results of operations (continued)
the supplemental operations data reflects the results of operations and financial position of snap-ons tools, diagnostic and equipment products, software and other non-financial services operations with financial services on the equity method. the supplemental financial services data reflects the results of operations and financial position of snap-ons u.s. and international financial services operations. the financing needs of financial services are met through intersegment borrowings and cash generated from operations; financial services is charged interest expense on intersegment borrowings at market rates. income taxes are charged to financial services on the basis of the specific tax attributes generated by the u.s. and international financial services businesses. transactions between the operations and financial services businesses were eliminated to arrive at the consolidated financial statements.
non-gaap supplemental consolidating data  supplemental statements of earnings information for 2016, 2015 and 2014 is as follows:
operations*                                            financial services
(amounts in millions)                                       2016                       2015                       2014                   2016                  2015                  2014
net sales                                                               $3,430.4                   $3,352.8                   $3,277.7                $                    $                    $
cost of goods sold                                                     (1,720.8)                  (1,704.5)                  (1,693.4)                                                           
gross profit                                                             1,709.6                    1,648.3                    1,584.3                                                           
operating expenses                                                     (1,054.1)                  (1,053.7)                  (1,048.7)                                                           
operating earnings before financial services                               655.5                      594.6                      535.6                                                           
financial services revenue                                                                                                                      281.4                 240.3                 214.9
financial services expenses                                                                                                                    (82.7)                (70.1)                (65.8)
operating earnings from financial services                                                                                                      198.7                 170.2                 149.1
operating earnings                                                         655.5                      594.6                      535.6             198.7                 170.2                 149.1
interest expense                                                          (51.9)                     (51.4)                     (52.2)             (0.3)                 (0.5)                 (0.7)
intersegment interest income (expense)  net                                72.2                       62.7                       56.7            (72.2)                (62.7)                (56.7)
other income (expense)  net                                               (0.7)                      (2.4)                      (0.8)               0.1                                      (0.1)
earnings before income taxes and equity earnings                           675.1                      603.5                      539.3             126.3                 107.0                  91.6
income tax expense                                                       (197.7)                    (181.9)                    (165.8)            (46.6)                (39.3)                (33.7)
earnings before equity earnings                                            477.4                      421.6                      373.5              79.7                  67.7                  57.9
financial services  net earnings attributable to snap-on                   79.7                       67.7                       57.9                                                           
equity earnings, net of tax                                                  2.5                        1.3                        0.7                                                           
net earnings                                                               559.6                      490.6                      432.1              79.7                  67.7                  57.9
net earnings attributable to noncontrolling interests                     (13.2)                     (11.9)                     (10.2)                                                           
net earnings attributable to snap-on                                      $546.4                     $478.7                     $421.9             $79.7                 $67.7                 $57.9
* snap-on with financial services on the equity method.
42   snap-on incorporated non-gaap supplemental consolidating data  supplemental balance sheet information as of 2016 and 2015 year end is as follows:
operations*                          financial services
(amounts in millions)                       2016                     2015                 2016                    2015
assets current assets:
cash and cash equivalents                                $77.5                    $92.7              $0.1                      $0.1
intersegment receivables                                  15.0                     15.9                                          
trade and other accounts receivable  net                598.2                    562.2               0.6                       0.3
finance receivables  net                                                                         472.5                     447.3
contract receivables  net                                 7.9                      8.0              80.2                      74.1
inventories  net                                        530.5                    497.8                                          
prepaid expenses and other assets                        122.4                    111.5               1.1                       1.2
total current assets                                   1,351.5                  1,288.1             554.5                     523.0
property and equipment  net                             423.8                    412.1               1.4                       1.4
investment in financial services                         288.7                    251.8                                          
deferred income tax assets                                49.1                     40.6              23.7                      19.8
intersegment long-term notes receivable                  584.7                    398.7                                          
long-term finance receivables  net                                                               934.5                     772.7
long-term contract receivables  net                      11.2                     12.1             275.5                     254.5
goodwill                                                 895.5                    790.1                                          
other intangibles  net                                  184.6                    195.0                                          
other assets                                              47.9                     49.9               0.1                       1.0
total assets                                          $3,837.0                 $3,438.4          $1,789.7                  $1,572.4
*   snap-on with financial services on the equity method.

2016 annual report   43
managements discussion and analysis of financial condition and results of operations (continued)
non-gaap supplemental consolidating data  supplemental balance sheet information (continued):
operations*                                financial services
(amounts in millions)                                    2016                     2015                 2016                       2015
liabilities and equity current liabilities:
notes payable and current maturities of long-term debt               $151.4                    $18.4               $150.0                           $
accounts payable                                                      170.3                    148.2                  0.6                          0.1
intersegment payables                                                                                              15.0                         15.9
accrued benefits                                                       52.8                     52.1                                                
accrued compensation                                                   85.7                     86.9                  4.1                          4.1
franchisee deposits                                                    66.7                     64.4                                                
other accrued liabilities                                             292.1                    277.4                 22.8                         25.0
total current liabilities                                             819.0                    647.4                192.5                         45.1
long-term debt and intersegment long-term debt                                                                  1,293.5                      1,260.4
deferred income tax liabilities                                        13.1                     14.1                                              0.2
retiree health care benefits                                           36.7                     37.9                                                
pension liabilities                                                   246.5                    227.8                                                
other long-term liabilities                                            86.5                     80.5                 15.0                         14.9
total liabilities                                                   1,201.8                  1,007.7              1,501.0                      1,320.6
total shareholders equity attributable to snap-on                  2,617.2                  2,412.7                288.7                        251.8
noncontrolling interests                                               18.0                     18.0                                                
total equity                                                        2,635.2                  2,430.7                288.7                        251.8
total liabilities and equity                                       $3,837.0                 $3,438.4             $1,789.7                     $1,572.4
*   snap-on with financial services on the equity method.

44   snap-on incorporated liquidity and capital resources snap-ons growth has historically been funded by a combination of cash provided by operating activities and debt financing. on january 17, 2017, snap-on repaid $150 million of unsecured 5.50% notes (the 2017 notes) upon maturity with available cash and cash generated from issuances of commercial paper. snap-on believes that its cash from operations and collections of finance receivables, coupled with its sources of borrowings and available cash on hand, are sufficient to fund its currently anticipated requirements for scheduled debt payments (including the january 15, 2018 repayment of $250 million of unsecured 4.25% notes at maturity (the 2018 notes)), payments of interest and dividends, new receivables originated by our financial services businesses, capital expenditures, working capital, the funding of pension plans, and funding for share repurchases and acquisitions, as they arise.
due to snap-ons credit rating over the years, external funds have been available at an acceptable cost. as of the close of business on february 3, 2017, snap-ons long-term debt and commercial paper were rated, respectively, a3 and p-2 by moodys investors service; a- and a-2 by standard & poors; and a and f1 by fitch ratings. snap-on believes that its current credit arrangements are sound and that the strength of its balance sheet affords the company the financial flexibility, including through access to financial markets for potential new financing, to respond to both internal growth opportunities and those available through acquisitions. however, snap-on cannot provide any assurances of the availability of future financing or the terms on which it might be available, or that its debt ratings may not decrease.
the following discussion focuses on information included in the accompanying consolidated balance sheets.
as of 2016 year end, working capital (current assets less current liabilities) of $894.5 million decreased $224.1 million from $1,118.6 million as of 2015 year end primarily as a result of the inclusion of the 2017 notes and $130 million of outstanding commercial paper borrowings in notes payable and current maturities of long-term debt, partially offset by the other net changes in working capital discussed below. as of 2015 year end, the 2017 notes were included in long-term debt on the accompanying consolidated balance sheet as their scheduled maturity was in excess of one year of the 2015 year-end balance sheet date.
the following represents the companys working capital position as of 2016 and 2015 year end:
(amounts in millions)                                    2016                2015
cash and cash equivalents                                            $77.6                $92.8
trade and other accounts receivable  net                            598.8                562.5
finance receivables  net                                            472.5                447.3
contract receivables  net                                            88.1                 82.1
inventories  net                                                    530.5                497.8
prepaid expenses and other assets                                    116.5                106.3
total current assets                                               1,884.0              1,788.8
notes payable and current maturities of long-term debt             (301.4)               (18.4)
accounts payable                                                   (170.9)              (148.3)
other current liabilities                                          (517.2)              (503.5)
total current liabilities                                          (989.5)              (670.2)
working capital                                                     $894.5             $1,118.6
cash and cash equivalents of $77.6 million as of 2016 year end decreased $15.2 million from 2015 year-end levels primarily due to (i) the funding of $915.0 million of new finance receivables; (ii) the funding of $160.4 million, net of cash acquired, for the acquisitions of car-o-liner and sturtevant richmont; (iii) dividend payments to shareholders of $147.5 million; (iv) the repurchase of 758,000 shares of the companys common stock for $120.4 million; and (v) the funding of $74.3 million of capital expenditures. these decreases in cash and cash equivalents were partially offset by (i) $671.7 million of cash from collections of finance receivables; (ii) $576.1 million of cash generated from operations, net of $60.0 million of discretionary cash contributions to the companys domestic pension plans; (iii) $134.2 million of net proceeds from notes payable and other short-term borrowings; and (iv) $41.8 million of cash proceeds from stock purchase and option plan exercises.
2016 annual report   45
managements discussion and analysis of financial condition and results of operations (continued)
of the $77.6 million of cash and cash equivalents as of 2016 year end, $59.0 million was held outside of the united states. snap-on maintains non-u.s. funds in its foreign operations to (i) provide adequate working capital; (ii) satisfy various regulatory requirements; and/or (iii) take advantage of business expansion opportunities as they arise. the repatriation of cash from certain foreign subsidiaries could have adverse net tax consequences on the company should snap-on be required to pay and record u.s. income taxes and foreign withholding taxes on such funds. alternatively, the repatriation of cash from certain other foreign subsidiaries could result in favorable net tax consequences for the company. snap-on periodically evaluates its cash held outside the united states and may pursue opportunities to repatriate certain foreign cash amounts to the extent that it does not incur unfavorable net tax consequences.
trade and other accounts receivable  net of $598.8 million as of 2016 year end increased $36.3 million from 2015 year-end levels primarily due to higher sales and an increase in days sales outstanding, and $21.5 million of receivables related to the car-o-liner and sturtevant richmont acquisitions, partially offset by $13.8 million of foreign currency translation. days sales outstanding (trade and other accounts receivable  net as of the respective period end, divided by the respective trailing 12 months sales, times 360 days) was 63 days at 2016 year end and 60 days at 2015 year end.
the current portions of net finance and contract receivables of $560.6 million as of 2016 year end compared to $529.4 million at 2015 year end. the long-term portions of net finance and contract receivables of $1,221.2 million as of 2016 year end compared to $1,039.3 million at 2015 year end. the combined $213.1 million increase in net current and long-term finance and contract receivables over 2015 year-end levels is primarily due to continued growth of the companys financial services portfolio, partially offset by $15.1 million of foreign currency translation.
inventories  net of $530.5 million as of 2016 year end increased $32.7 million from 2015 year-end levels primarily due to $21.5 million of inventories related to the car-o-liner and sturtevant richmont acquisitions, as well as to support continued higher customer demand and new product introductions, partially offset by $17.8 million of foreign currency translation. as of 2016 and 2015 year end, inventory turns (trailing 12 months of cost of goods sold, divided by the average of the beginning and ending inventory balance for the trailing 12 months) were 3.3 turns and 3.5 turns, respectively. inventories accounted for using the first-in, first-out (fifo) method as of 2016 and 2015 year end approximated 59% and 57%, respectively, of total inventories. all other inventories are accounted for using the last-in, first-out (lifo) method. the companys lifo reserve was $73.2 million and $73.3 million as 2016 and 2015 year end, respectively.
notes payable and current maturities of long-term debt of $301.4 million as of 2016 year end consisted of $150 million of the 2017 notes, $130 million of commercial paper borrowings and $21.4 million of other notes. notes payable at 2015 year end totaled $18.4 million and there were no commercial paper borrowings outstanding. as of 2015 year end, the 2017 notes were included in long-term debt on the accompanying consolidated balance sheet as their scheduled maturity was in excess of one year of the 2015 year-end balance sheet date.
average notes payable outstanding, including commercial paper borrowings, were $49.3 million and $78.5 million in 2016 and 2015, respectively. the weighted-average interest rate of 7.09% in 2016 increased from 4.36% last year primarily due to higher interest rates on local borrowings in emerging growth markets (where interest rates are generally higher). average commercial paper borrowings were $26.6 million and $52.2 million in 2016 and 2015, respectively, and the weighted-average interest rate of 0.73% in 2016 increased from 0.41% last year. at 2016 year end, the weighted-average interest rate on outstanding notes payable of 2.85% compared with 15.82% at 2015 year end. the 2016 year-end rate benefited from lower interest rates on commercial paper borrowings. the 2015 year-end rate reflected higher rates on local borrowings in emerging growth markets; no commercial paper was outstanding at 2015 year end.
accounts payable of $170.9 million as of 2016 year end increased $22.6 million from 2015 year-end levels primarily due to the timing of payments and $10.9 million of accounts payable related to the car-o-liner and sturtevant richmont acquisitions, partially offset by $3.8 million of foreign currency translation.
other accrued liabilities of $307.9 million as of 2016 year end increased $11.9 million from 2015 year-end levels primarily due to a $7.6 million increase in derivative liabilities and $6.4 million of other accrued liabilities related to the car-o-liner and sturtevant richmont acquisitions, partially offset by $8.3 million of foreign currency translation.
46   snap-on incorporated long-term debt of $708.8 million as of 2016 year end consisted of (i) $250 million of the 2018 notes; (ii) $200 million of unsecured 6.70% notes that mature in 2019; (iii) $250 million of unsecured 6.125% notes that mature in 2021; and (iv) $8.8 million of other long-term debt, including fair value adjustments related to interest rate swaps. as of 2016 year end, the 2018 notes were included in long-term debt on the accompanying consolidated balance sheet as their scheduled maturity was in excess of one year of the 2016 year-end balance sheet date.
snap-on has a five-year, $700 million multi-currency revolving credit facility that terminates on december 15, 2020 (the credit facility); as of december 31, 2016, no amounts were outstanding under the credit facility. borrowings under the credit facility bear interest at varying rates based on snap-ons then-current, long-term debt ratings. the credit facilitys financial covenant requires that snap-on maintain, as of each fiscal quarter end, either (i) a ratio not greater than 0.60 to 1.00 of consolidated net debt (consolidated debt net of certain cash adjustments) to the sum of such consolidated net debt plus total equity and less accumulated other comprehensive income or loss (the debt ratio); or (ii) a ratio not greater than 3.50 to 1.00 of such consolidated net debt to earnings before interest, taxes, depreciation, amortization and certain other adjustments for the preceding four fiscal quarters then ended (the debt to ebitda ratio). snap-on may, up to two times during any five-year period during the term of the credit facility (including any extensions thereof), increase the maximum debt ratio to 0.65 to 1.00 and/or increase the maximum debt to ebitda ratio to 3.75 to 1.00 for four consecutive fiscal quarters in connection with certain material acquisitions (as defined in the related credit agreement). as of 2016 year end, the companys actual ratios of 0.24 and 1.02, respectively, were both within the permitted ranges set forth in this financial covenant. snap-on generally issues commercial paper to fund its financing needs on a short-term basis and uses the credit facility as back-up liquidity to support such commercial paper issuances.
snap-ons credit facility and other debt agreements also contain certain usual and customary borrowing, affirmative, negative and maintenance covenants. as of 2016 year end, snap-on was in compliance with all covenants of its credit facility and other debt agreements.
